sn,age,sex,cond,trial,repcond,imcat,imnum,loc,resp,srccorr,rt,conf,confrt,imname,dum
1,25,2,1,1,2,2,3,2,1,2,6357.03,1,1945.56,unknown_female03.jpg,0
1,25,2,1,2,2,1,18,4,1,2,5074.45,1,1132.84,unknown_male18.jpg,0
1,25,2,1,3,1,2,4,2,2,1,2951.22,1,226.31,unknown_female04.jpg,0
1,25,2,1,4,2,2,11,1,2,2,1915.16,4,1353.66,unknown_female11.jpg,0
1,25,2,1,5,2,1,7,2,2,1,1394.97,4,199.22,unknown_male07.jpg,0
1,25,2,1,6,2,1,24,1,1,1,4896.78,1,298.82,unknown_male24.jpg,0
1,25,2,1,7,1,1,15,4,3,2,2480.14,4,263.62,unknown_male15.jpg,0
1,25,2,1,8,2,1,6,4,1,2,1822.36,1,185,unknown_male06.jpg,0
1,25,2,1,9,2,1,8,2,2,1,1859.31,4,516.56,unknown_male08.jpg,0
1,25,2,1,10,1,2,23,1,1,1,3616.87,4,127.99,unknown_female23.jpg,0
1,25,2,1,11,1,1,16,3,3,1,1837.04,1,2927.03,unknown_male16.jpg,0
1,25,2,1,12,1,2,18,4,3,2,4358.66,3,575.06,unknown_female18.jpg,0
1,25,2,1,13,1,1,17,1,1,1,3737.22,1,347.61,unknown_male17.jpg,0
1,25,2,1,14,2,2,10,2,1,2,2054.84,1,175.72,unknown_female10.jpg,0
1,25,2,1,15,2,2,7,2,2,1,3378.63,4,412.3,unknown_female07.jpg,0
1,25,2,1,16,2,2,2,4,1,2,1628.83,1,47.87,unknown_female02.jpg,0
1,25,2,1,17,2,2,8,4,1,2,4055.77,1,132.72,unknown_female08.jpg,0
1,25,2,1,18,2,2,13,3,1,2,1897.14,1,136.26,unknown_female13.jpg,0
1,25,2,1,19,2,1,3,1,1,1,1244.67,1,111.78,unknown_male03.jpg,0
1,25,2,1,20,2,1,23,3,1,2,1788.88,1,25.01,unknown_male23.jpg,0
1,25,2,1,21,1,2,19,4,4,1,5514.23,4,226.35,unknown_female19.jpg,0
1,25,2,1,22,1,2,16,3,3,1,1355.28,4,57.48,unknown_female16.jpg,0
1,25,2,1,23,1,2,5,1,3,2,3081.39,3,687.66,unknown_female05.jpg,0
1,25,2,1,24,1,1,1,2,2,1,4324.85,1,54.75,unknown_male01.jpg,0
1,25,2,1,25,2,2,24,4,1,2,1166.59,1,60.52,unknown_female24.jpg,0
1,25,2,1,26,1,2,14,2,3,2,5779.61,1,280.63,unknown_female14.jpg,0
1,25,2,1,27,1,2,6,3,3,1,1302.74,4,255.07,unknown_female06.jpg,0
1,25,2,1,28,1,1,22,4,2,2,1526.57,4,69.8,unknown_male22.jpg,0
1,25,2,1,29,1,1,12,2,4,2,4212.96,1,27.66,unknown_male12.jpg,0
1,25,2,1,30,2,1,19,3,2,2,3052.9,1,91.9,unknown_male19.jpg,0
1,25,2,1,31,2,2,15,3,1,2,2290.4,4,489.44,unknown_female15.jpg,0
1,25,2,1,32,1,2,21,4,1,2,1895.15,1,183.06,unknown_female21.jpg,0
1,25,2,1,33,2,1,10,3,1,2,5097.27,1,170.9,unknown_male10.jpg,0
1,25,2,1,34,2,1,5,4,2,2,2909.84,4,947.17,unknown_male05.jpg,0
1,25,2,1,35,1,1,21,1,1,1,3109.27,1,10.05,unknown_male21.jpg,0
1,25,2,1,36,1,1,9,2,1,2,1123.99,1,4.04,unknown_male09.jpg,0
1,25,2,1,37,2,2,9,3,1,2,1270.02,1,1719.72,unknown_female09.jpg,0
1,25,2,1,38,2,2,17,1,1,1,1161.7,1,168.34,unknown_female17.jpg,0
1,25,2,1,39,2,1,11,1,2,2,7603.37,2,1636.19,unknown_male11.jpg,0
1,25,2,1,40,2,1,2,2,2,1,3913.62,4,172.83,unknown_male02.jpg,0
1,25,2,1,41,1,2,12,2,3,2,1759.81,2,181.28,unknown_female12.jpg,0
1,25,2,1,42,1,1,14,4,2,2,2991.55,2,25.31,unknown_male14.jpg,0
1,25,2,1,43,2,2,20,1,1,1,1562.51,4,271.71,unknown_female20.jpg,0
1,25,2,1,44,1,1,13,3,2,2,1174.54,4,540.43,unknown_male13.jpg,0
1,25,2,1,45,1,1,20,1,2,2,1896.04,1,167.97,unknown_male20.jpg,0
1,25,2,1,46,1,2,22,3,2,2,1178.91,1,248.17,unknown_female22.jpg,0
1,25,2,1,47,1,2,1,1,1,1,1407.62,4,739.74,unknown_female01.jpg,0
1,25,2,1,48,1,1,4,3,2,2,4110.97,2,377.83,unknown_male04.jpg,0
2,25,1,2,1,1,2,6,4,1,2,2346.47,3,1823.49,famous_female06.jpg,0
2,25,1,2,2,2,2,7,4,2,2,3092.53,2,242.1,famous_female07.jpg,0
2,25,1,2,3,2,2,9,3,3,1,1121.6,4,353.61,famous_female09.jpg,0
2,25,1,2,4,2,2,17,4,4,1,1460.92,4,31.01,famous_female17.jpg,0
2,25,1,2,5,2,1,20,4,4,1,639.53,4,531.82,famous_male20.jpg,0
2,25,1,2,6,1,1,11,2,1,2,2527.39,2,740.75,famous_male11.jpg,0
2,25,1,2,7,2,2,23,3,3,1,1055.95,4,386.76,famous_female23.jpg,0
2,25,1,2,8,2,1,10,2,2,1,988.68,4,594.33,famous_male10.jpg,0
2,25,1,2,9,1,1,23,2,1,2,2067.05,1,1267.26,famous_male23.jpg,0
2,25,1,2,10,2,1,12,1,1,1,904.12,4,297.22,famous_male12.jpg,0
2,25,1,2,11,1,2,13,1,3,2,3654.63,2,1652.36,famous_female13.jpg,0
2,25,1,2,12,2,2,10,1,1,1,1249.16,4,443.62,famous_female10.jpg,0
2,25,1,2,13,2,2,12,4,4,1,1067.38,4,477.47,famous_female12.jpg,0
2,25,1,2,14,2,1,1,2,2,1,1315.2,4,498.81,famous_male01.jpg,0
2,25,1,2,15,1,2,5,3,1,2,1831.84,3,809.78,famous_female05.jpg,0
2,25,1,2,16,1,2,24,1,1,1,2186.24,2,421.54,famous_female24.jpg,0
2,25,1,2,17,1,1,24,3,3,1,1134.01,2,221.39,famous_male24.jpg,0
2,25,1,2,18,1,1,7,3,3,1,1782.21,3,722.31,famous_male07.jpg,0
2,25,1,2,19,2,2,4,2,2,1,934.18,4,189.87,famous_female04.jpg,0
2,25,1,2,20,2,1,14,4,1,2,1744.2,3,1582.39,famous_male14.jpg,0
2,25,1,2,21,2,1,13,3,3,1,1037.9,4,537.45,famous_male13.jpg,0
2,25,1,2,22,1,2,22,2,1,2,2085.02,2,364.53,famous_female22.jpg,0
2,25,1,2,23,1,1,15,1,1,1,951.05,4,678.18,famous_male15.jpg,0
2,25,1,2,24,2,1,17,2,2,1,1060.07,3,382.98,famous_male17.jpg,0
2,25,1,2,25,1,2,3,4,4,1,2080.79,4,232.31,famous_female03.jpg,0
2,25,1,2,26,1,1,16,3,4,2,1176.47,3,310.58,famous_male16.jpg,0
2,25,1,2,27,1,2,8,4,2,2,3459.8,4,674.04,famous_female08.jpg,0
2,25,1,2,28,2,1,2,1,4,2,1823.98,2,562.69,famous_male02.jpg,0
2,25,1,2,29,2,2,15,2,2,1,836.85,3,1240.75,famous_female15.jpg,0
2,25,1,2,30,2,2,19,1,2,2,4631,3,532.18,famous_female19.jpg,0
2,25,1,2,31,1,1,5,2,2,1,1631.83,2,290.15,famous_male05.jpg,0
2,25,1,2,32,2,2,1,2,2,1,1240.25,3,731.36,famous_female01.jpg,0
2,25,1,2,33,1,1,22,1,1,1,870.54,3,921.09,famous_male22.jpg,0
2,25,1,2,34,2,1,3,3,1,2,1036.66,3,184.14,famous_male03.jpg,0
2,25,1,2,35,2,1,21,1,1,1,1178.44,4,104.36,famous_male21.jpg,0
2,25,1,2,36,1,2,21,1,1,1,2726.16,3,323.06,famous_female21.jpg,0
2,25,1,2,37,2,1,8,3,3,1,1939.56,3,385.3,famous_male08.jpg,0
2,25,1,2,38,1,1,4,4,3,2,1123.22,2,115.26,famous_male04.jpg,0
2,25,1,2,39,1,1,9,1,1,1,2808.33,3,1089.73,famous_male09.jpg,0
2,25,1,2,40,2,2,16,3,3,1,846.27,3,601.46,famous_female16.jpg,0
2,25,1,2,41,1,1,18,4,2,2,1082.29,2,339.75,famous_male18.jpg,0
2,25,1,2,42,1,1,19,4,2,2,1063.76,1,169.88,famous_male19.jpg,0
2,25,1,2,43,1,2,14,2,2,1,1604.84,2,240.54,famous_female14.jpg,0
2,25,1,2,44,1,2,11,3,3,1,3632.76,4,799.97,famous_female11.jpg,0
2,25,1,2,45,1,2,18,2,2,1,2216.35,3,298.17,famous_female18.jpg,0
2,25,1,2,46,1,2,20,3,3,1,2935.55,2,211.36,famous_female20.jpg,0
2,25,1,2,47,2,2,2,1,1,1,980.32,4,249.97,famous_female02.jpg,0
2,25,1,2,48,2,1,6,4,4,1,897.37,4,170.58,famous_male06.jpg,0
3,24,2,1,1,1,2,3,3,3,1,1620,3,2495.03,unknown_female03.jpg,0
3,24,2,1,2,2,2,22,1,2,2,3616.8,2,1024.02,unknown_female22.jpg,0
3,24,2,1,3,1,1,19,1,1,1,1287.27,4,1304.35,unknown_male19.jpg,0
3,24,2,1,4,1,2,15,1,3,2,3019.78,1,1172.11,unknown_female15.jpg,0
3,24,2,1,5,2,2,4,2,2,1,5101.17,1,542.09,unknown_female04.jpg,0
3,24,2,1,6,2,2,10,3,4,2,1969,2,2733.35,unknown_female10.jpg,0
3,24,2,1,7,1,2,16,4,4,1,2300.7,2,379.06,unknown_female16.jpg,0
3,24,2,1,8,1,2,19,2,4,2,2332.91,3,873.94,unknown_female19.jpg,0
3,24,2,1,9,1,2,12,4,2,2,5615.52,2,1211.51,unknown_female12.jpg,0
3,24,2,1,10,1,2,23,2,1,2,3803.14,2,650.69,unknown_female23.jpg,0
3,24,2,1,11,2,1,16,2,3,2,2377.36,2,292.92,unknown_male16.jpg,0
3,24,2,1,12,2,1,10,2,1,2,2363.02,1,711.29,unknown_male10.jpg,0
3,24,2,1,13,1,1,17,4,3,2,2827.86,2,852.61,unknown_male17.jpg,0
3,24,2,1,14,2,1,15,1,1,1,3642.96,2,233.43,unknown_male15.jpg,0
3,24,2,1,15,2,2,6,3,3,1,5929.56,1,856.24,unknown_female06.jpg,0
3,24,2,1,16,2,2,24,1,1,1,2782.61,2,1584.67,unknown_female24.jpg,0
3,24,2,1,17,2,1,3,1,3,2,1328.26,2,367.9,unknown_male03.jpg,0
3,24,2,1,18,2,1,8,4,2,2,3354.49,1,572.8,unknown_male08.jpg,0
3,24,2,1,19,1,2,9,2,1,2,8326.96,1,136.99,unknown_female09.jpg,0
3,24,2,1,20,1,1,18,1,1,1,4405.42,2,1371.67,unknown_male18.jpg,0
3,24,2,1,21,1,1,11,3,4,2,4780.41,2,555.2,unknown_male11.jpg,0
3,24,2,1,22,1,2,11,3,3,1,3918.12,2,1008.7,unknown_female11.jpg,0
3,24,2,1,23,1,1,4,1,1,1,1792.77,3,644.79,unknown_male04.jpg,0
3,24,2,1,24,2,1,13,1,2,2,4436.16,1,481.09,unknown_male13.jpg,0
3,24,2,1,25,2,1,22,3,3,1,6758.75,1,394.51,unknown_male22.jpg,0
3,24,2,1,26,1,1,21,2,4,2,2443.73,1,1236.49,unknown_male21.jpg,0
3,24,2,1,27,2,2,1,1,1,1,1762.75,3,368.19,unknown_female01.jpg,0
3,24,2,1,28,1,1,14,3,2,2,9834.81,1,285.91,unknown_male14.jpg,0
3,24,2,1,29,2,1,5,3,3,1,3163.97,3,694.67,unknown_male05.jpg,0
3,24,2,1,30,1,1,24,2,1,2,1427.95,2,615.46,unknown_male24.jpg,0
3,24,2,1,31,2,2,18,2,4,2,2735.56,2,1531.78,unknown_female18.jpg,0
3,24,2,1,32,1,2,5,1,2,2,5669.39,2,287.25,unknown_female05.jpg,0
3,24,2,1,33,2,2,21,3,3,1,3701.33,1,145.03,unknown_female21.jpg,0
3,24,2,1,34,1,1,7,3,3,1,2428.66,2,670.18,unknown_male07.jpg,0
3,24,2,1,35,2,1,20,3,3,1,2300.15,2,146.58,unknown_male20.jpg,0
3,24,2,1,36,2,2,2,4,2,2,2998.24,2,319.98,unknown_female02.jpg,0
3,24,2,1,37,2,2,17,4,3,2,3860.67,1,410.06,unknown_female17.jpg,0
3,24,2,1,38,1,1,6,4,4,1,1691.19,2,467.48,unknown_male06.jpg,0
3,24,2,1,39,1,1,9,4,4,1,9369.91,2,440.53,unknown_male09.jpg,0
3,24,2,1,40,2,1,23,4,2,2,3352.28,1,122.66,unknown_male23.jpg,0
3,24,2,1,41,2,2,14,4,4,1,1455.7,4,2673.79,unknown_female14.jpg,0
3,24,2,1,42,1,2,20,1,2,2,4211.92,2,242.58,unknown_female20.jpg,0
3,24,2,1,43,1,2,13,3,2,2,3498.8,2,487.52,unknown_female13.jpg,0
3,24,2,1,44,1,2,7,4,4,1,1765.18,4,257.98,unknown_female07.jpg,0
3,24,2,1,45,2,1,2,2,3,2,2985.44,1,219.19,unknown_male02.jpg,0
3,24,2,1,46,2,1,1,4,3,2,1660.03,1,205.79,unknown_male01.jpg,0
3,24,2,1,47,1,1,12,2,2,1,3463.34,3,1405.55,unknown_male12.jpg,0
3,24,2,1,48,2,2,8,2,2,1,3148.71,1,383.44,unknown_female08.jpg,0
4,23,2,2,1,1,1,13,1,4,2,11875.34,2,865.11,famous_male13.jpg,0
4,23,2,2,2,2,2,17,3,3,1,4854.77,3,394.17,famous_female17.jpg,0
4,23,2,2,3,2,2,19,4,4,1,5587.38,4,464.02,famous_female19.jpg,0
4,23,2,2,4,1,1,7,4,4,1,1046.43,4,249.25,famous_male07.jpg,0
4,23,2,2,5,1,2,24,3,3,1,1912.71,4,303.2,famous_female24.jpg,0
4,23,2,2,6,2,1,2,2,2,1,3268.62,3,714.42,famous_male02.jpg,0
4,23,2,2,7,1,2,7,1,1,1,2046.35,4,911.94,famous_female07.jpg,0
4,23,2,2,8,1,1,19,2,2,1,1684.11,4,380.42,famous_male19.jpg,0
4,23,2,2,9,2,1,18,3,3,1,4742.31,2,294.59,famous_male18.jpg,0
4,23,2,2,10,1,2,5,4,4,1,6004.65,2,1263.92,famous_female05.jpg,0
4,23,2,2,11,2,2,11,1,1,1,1172.73,4,426.63,famous_female11.jpg,0
4,23,2,2,12,2,1,12,3,3,1,2851.15,3,682.44,famous_male12.jpg,0
4,23,2,2,13,2,2,1,4,4,1,3223.76,3,391.71,famous_female01.jpg,0
4,23,2,2,14,2,1,23,2,4,2,9505.61,1,458.63,famous_male23.jpg,0
4,23,2,2,15,1,2,4,2,2,1,2393.76,4,1220.61,famous_female04.jpg,0
4,23,2,2,16,2,2,8,1,1,1,1419.59,4,622.99,famous_female08.jpg,0
4,23,2,2,17,2,2,6,2,2,1,1527.06,4,278.35,famous_female06.jpg,0
4,23,2,2,18,1,2,20,1,1,1,1196.48,4,288.99,famous_female20.jpg,0
4,23,2,2,19,1,2,18,4,4,1,3327.1,4,266.79,famous_female18.jpg,0
4,23,2,2,20,2,2,13,2,2,1,1129.55,4,512.92,famous_female13.jpg,0
4,23,2,2,21,1,1,6,2,4,2,3589.24,1,229.78,famous_male06.jpg,0
4,23,2,2,22,2,2,23,4,4,1,3549.97,3,967.9,famous_female23.jpg,0
4,23,2,2,23,1,1,5,1,3,2,3785.3,2,273.49,famous_male05.jpg,0
4,23,2,2,24,1,1,16,1,1,1,3640.3,2,198.74,famous_male16.jpg,0
4,23,2,2,25,2,1,4,4,2,2,7640.34,1,751.67,famous_male04.jpg,0
4,23,2,2,26,1,2,2,3,1,2,3514.21,1,1246.24,famous_female02.jpg,0
4,23,2,2,27,2,2,15,3,3,1,4076.44,3,272.76,famous_female15.jpg,0
4,23,2,2,28,2,1,21,1,3,2,5223.57,2,315.58,famous_male21.jpg,0
4,23,2,2,29,2,2,12,3,3,1,2080.24,4,336.45,famous_female12.jpg,0
4,23,2,2,30,1,1,1,2,2,1,1404.48,4,288.65,famous_male01.jpg,0
4,23,2,2,31,1,2,16,4,4,1,1398.69,4,274.81,famous_female16.jpg,0
4,23,2,2,32,2,1,10,3,2,2,7649.59,1,752.25,famous_male10.jpg,0
4,23,2,2,33,1,2,9,2,2,1,2898.74,4,200.73,famous_female09.jpg,0
4,23,2,2,34,2,2,10,1,1,1,2610.24,4,236.08,famous_female10.jpg,0
4,23,2,2,35,1,1,17,3,3,1,5772.29,1,193.23,famous_male17.jpg,0
4,23,2,2,36,2,2,3,2,2,1,1067.47,4,109.64,famous_female03.jpg,0
4,23,2,2,37,1,2,14,2,2,1,2499.38,4,257.48,famous_female14.jpg,0
4,23,2,2,38,2,1,8,1,1,1,1792.86,2,220.96,famous_male08.jpg,0
4,23,2,2,39,2,1,3,1,1,1,3117.87,3,633.98,famous_male03.jpg,0
4,23,2,2,40,2,1,22,4,1,2,6889.37,1,176.21,famous_male22.jpg,0
4,23,2,2,41,1,1,9,3,4,2,4555.15,2,611.19,famous_male09.jpg,0
4,23,2,2,42,2,1,14,4,4,1,2091.96,3,1067.47,famous_male14.jpg,0
4,23,2,2,43,1,1,24,3,2,2,3304.72,2,645.2,famous_male24.jpg,0
4,23,2,2,44,1,1,11,4,2,2,2011.87,4,318.83,famous_male11.jpg,0
4,23,2,2,45,2,1,15,2,2,1,3035.55,3,539.14,famous_male15.jpg,0
4,23,2,2,46,1,2,21,3,3,1,6462.76,1,271.04,famous_female21.jpg,0
4,23,2,2,47,1,2,22,1,1,1,2709.84,4,195.43,famous_female22.jpg,0
4,23,2,2,48,1,1,20,4,4,1,885.03,4,230.87,famous_male20.jpg,0
5,23,1,1,1,1,2,2,1,1,1,5512.38,2,3160.6,unknown_female02.jpg,0
5,23,1,1,2,1,1,5,4,4,1,9878.43,2,1032.11,unknown_male05.jpg,0
5,23,1,1,3,2,2,11,1,2,2,6838.69,1,575.62,unknown_female11.jpg,0
5,23,1,1,4,2,2,12,2,3,2,2353.77,2,1262.1,unknown_female12.jpg,0
5,23,1,1,5,1,2,22,4,3,2,8226.97,2,281.13,unknown_female22.jpg,0
5,23,1,1,6,2,1,6,4,2,2,3935.25,1,969.09,unknown_male06.jpg,0
5,23,1,1,7,2,1,14,2,2,1,1298.48,4,538.92,unknown_male14.jpg,0
5,23,1,1,8,1,2,8,2,1,2,8318.42,3,737.14,unknown_female08.jpg,0
5,23,1,1,9,1,2,23,3,1,2,1332.39,3,283.4,unknown_female23.jpg,0
5,23,1,1,10,2,2,14,3,3,1,5625.43,2,700.73,unknown_female14.jpg,0
5,23,1,1,11,1,1,19,2,3,2,2681.3,3,576.27,unknown_male19.jpg,0
5,23,1,1,12,2,1,24,4,1,2,4314.42,1,300.95,unknown_male24.jpg,0
5,23,1,1,13,2,2,6,2,1,2,3394.36,1,339.29,unknown_female06.jpg,0
5,23,1,1,14,1,1,3,2,3,2,1527.3,3,190.56,unknown_male03.jpg,0
5,23,1,1,15,1,2,5,3,3,1,1288.84,3,193.85,unknown_female05.jpg,0
5,23,1,1,16,2,1,13,3,2,2,3580.09,1,349.39,unknown_male13.jpg,0
5,23,1,1,17,1,1,17,4,4,1,1288.72,4,153.81,unknown_male17.jpg,0
5,23,1,1,18,1,2,13,2,3,2,6549.42,2,354.23,unknown_female13.jpg,0
5,23,1,1,19,2,2,10,1,1,1,1773.5,4,466.26,unknown_female10.jpg,0
5,23,1,1,20,2,1,4,1,1,1,2072.67,4,208.88,unknown_male04.jpg,0
5,23,1,1,21,1,2,1,2,1,2,1058.37,4,197.27,unknown_female01.jpg,0
5,23,1,1,22,2,2,16,4,3,2,4678.8,1,513.93,unknown_female16.jpg,0
5,23,1,1,23,2,1,1,1,2,2,4422.27,1,483.83,unknown_male01.jpg,0
5,23,1,1,24,2,1,22,4,2,2,1673.58,2,250.48,unknown_male22.jpg,0
5,23,1,1,25,1,1,7,3,2,2,1761.99,3,175.43,unknown_male07.jpg,0
5,23,1,1,26,2,1,10,2,2,1,3850.44,1,1063.78,unknown_male10.jpg,0
5,23,1,1,27,2,1,12,1,1,1,2245.05,1,190.23,unknown_male12.jpg,0
5,23,1,1,28,1,2,3,1,1,1,2136.5,1,1709.93,unknown_female03.jpg,0
5,23,1,1,29,2,2,4,3,2,2,5360.57,1,366.98,unknown_female04.jpg,0
5,23,1,1,30,2,1,8,3,1,2,3337.55,1,332.67,unknown_male08.jpg,0
5,23,1,1,31,1,2,21,4,2,2,2872.61,2,223.29,unknown_female21.jpg,0
5,23,1,1,32,2,2,7,3,1,2,2936.11,1,747.93,unknown_female07.jpg,0
5,23,1,1,33,1,2,9,1,3,2,2110.46,2,605.27,unknown_female09.jpg,0
5,23,1,1,34,1,1,23,1,3,2,4390.03,2,453.06,unknown_male23.jpg,0
5,23,1,1,35,2,2,15,2,3,2,5180.09,2,890.22,unknown_female15.jpg,0
5,23,1,1,36,1,1,11,2,2,1,2783.19,1,1433.33,unknown_male11.jpg,0
5,23,1,1,37,2,1,18,2,1,2,7191.07,1,152.64,unknown_male18.jpg,0
5,23,1,1,38,1,2,19,4,4,1,2460.27,3,652.41,unknown_female19.jpg,0
5,23,1,1,39,2,2,24,1,1,1,2011.15,2,334.1,unknown_female24.jpg,0
5,23,1,1,40,2,2,17,4,1,2,3530.11,2,781.46,unknown_female17.jpg,0
5,23,1,1,41,1,1,20,1,2,2,4414.58,2,188.91,unknown_male20.jpg,0
5,23,1,1,42,1,1,9,3,2,2,9855.16,2,569.5,unknown_male09.jpg,0
5,23,1,1,43,2,2,18,4,1,2,3883.73,2,304.37,unknown_female18.jpg,0
5,23,1,1,44,1,1,15,3,1,2,2453.75,3,741.85,unknown_male15.jpg,0
5,23,1,1,45,2,1,16,3,1,2,4041.06,2,478.75,unknown_male16.jpg,0
5,23,1,1,46,1,1,2,4,1,2,1828.46,1,175.17,unknown_male02.jpg,0
5,23,1,1,47,1,2,20,3,4,2,3794.05,3,330.25,unknown_female20.jpg,0
5,23,1,1,48,1,1,21,1,1,1,3166.23,2,144.3,unknown_male21.jpg,0
6,24,1,2,1,1,2,15,1,2,2,7696.43,3,2652.97,famous_female15.jpg,0
6,24,1,2,2,2,1,22,3,1,2,3455.81,1,909.92,famous_male22.jpg,0
6,24,1,2,3,2,2,5,1,1,1,1114.15,4,1162.18,famous_female05.jpg,0
6,24,1,2,4,2,1,24,3,4,2,3643.24,3,865.66,famous_male24.jpg,0
6,24,1,2,5,2,1,9,2,2,1,2815.29,1,416.07,famous_male09.jpg,0
6,24,1,2,6,1,2,10,3,1,2,2840.45,3,440.5,famous_female10.jpg,0
6,24,1,2,7,2,1,18,1,1,1,848.32,4,251.51,famous_male18.jpg,0
6,24,1,2,8,2,2,16,3,3,1,1986.97,4,1062.68,famous_female16.jpg,0
6,24,1,2,9,2,1,20,4,4,1,2220.56,1,278.51,famous_male20.jpg,0
6,24,1,2,10,1,1,6,2,4,2,3533.24,2,616.61,famous_male06.jpg,0
6,24,1,2,11,2,1,16,2,2,1,896.75,4,281.85,famous_male16.jpg,0
6,24,1,2,12,2,1,21,1,3,2,2631.96,3,800.34,famous_male21.jpg,0
6,24,1,2,13,2,1,5,1,1,1,2568.77,4,411.93,famous_male05.jpg,0
6,24,1,2,14,1,1,3,4,4,1,884.41,4,254.28,famous_male03.jpg,0
6,24,1,2,15,1,2,9,3,1,2,1493.79,4,590.49,famous_female09.jpg,0
6,24,1,2,16,1,1,7,3,2,2,1631.92,1,946.29,famous_male07.jpg,0
6,24,1,2,17,2,1,10,4,3,2,2652.4,2,540.09,famous_male10.jpg,0
6,24,1,2,18,2,2,6,2,2,1,1471.73,3,329.12,famous_female06.jpg,0
6,24,1,2,19,1,2,1,2,2,1,1764.99,4,297.81,famous_female01.jpg,0
6,24,1,2,20,2,1,19,4,4,1,855.22,4,242.39,famous_male19.jpg,0
6,24,1,2,21,2,2,19,2,2,1,906.58,4,251.71,famous_female19.jpg,0
6,24,1,2,22,1,1,23,3,3,1,2387.16,3,766.16,famous_male23.jpg,0
6,24,1,2,23,2,2,8,4,4,1,2031.95,4,761.46,famous_female08.jpg,0
6,24,1,2,24,1,1,2,1,4,2,1115.95,3,500.11,famous_male02.jpg,0
6,24,1,2,25,2,1,17,3,3,1,1841.03,4,1138.98,famous_male17.jpg,0
6,24,1,2,26,2,2,14,3,3,1,869.4,4,183.93,famous_female14.jpg,0
6,24,1,2,27,1,2,23,1,2,2,1506.25,2,482.16,famous_female23.jpg,0
6,24,1,2,28,1,1,11,2,2,1,3375.89,3,457.5,famous_male11.jpg,0
6,24,1,2,29,1,2,11,4,2,2,1696.61,3,272.16,famous_female11.jpg,0
6,24,1,2,30,1,1,1,3,3,1,1430.95,2,249.72,famous_male01.jpg,0
6,24,1,2,31,1,1,12,2,2,1,2521.22,2,254.47,famous_male12.jpg,0
6,24,1,2,32,1,1,13,1,2,2,2757.97,2,153.47,famous_male13.jpg,0
6,24,1,2,33,2,2,18,3,3,1,1421.19,1,336.6,famous_female18.jpg,0
6,24,1,2,34,1,2,24,4,3,2,1588.6,4,233.04,famous_female24.jpg,0
6,24,1,2,35,1,1,8,1,2,2,1249.25,2,395.67,famous_male08.jpg,0
6,24,1,2,36,1,2,12,4,3,2,2068.82,2,205.04,famous_female12.jpg,0
6,24,1,2,37,2,2,3,4,1,2,2598.64,1,256.43,famous_female03.jpg,0
6,24,1,2,38,1,1,15,4,4,1,991.95,4,501.59,famous_male15.jpg,0
6,24,1,2,39,2,2,2,2,1,2,3826.52,2,1113.29,famous_female02.jpg,0
6,24,1,2,40,2,2,20,4,4,1,1284.44,2,1125.46,famous_female20.jpg,0
6,24,1,2,41,2,2,7,1,1,1,984.61,4,230.24,famous_female07.jpg,0
6,24,1,2,42,1,2,21,2,4,2,1694.41,3,262.66,famous_female21.jpg,0
6,24,1,2,43,1,2,22,3,3,1,1645.47,4,527.8,famous_female22.jpg,0
6,24,1,2,44,1,2,13,2,2,1,1804.1,2,143.47,famous_female13.jpg,0
6,24,1,2,45,1,2,4,1,2,2,1995.88,2,159.54,famous_female04.jpg,0
6,24,1,2,46,2,1,4,2,4,2,1979.16,1,455.58,famous_male04.jpg,0
6,24,1,2,47,1,1,14,4,4,1,1814.66,2,1385.34,famous_male14.jpg,0
6,24,1,2,48,2,2,17,1,1,1,945.3,4,153,famous_female17.jpg,0
7,24,1,1,1,2,2,5,4,3,2,5124.07,1,1340.35,unknown_female05.jpg,0
7,24,1,1,2,2,1,22,2,2,1,3814.38,1,685.89,unknown_male22.jpg,0
7,24,1,1,3,2,1,13,4,4,1,1427.15,4,1022.61,unknown_male13.jpg,0
7,24,1,1,4,2,1,24,1,1,1,6797.93,2,1520.27,unknown_male24.jpg,0
7,24,1,1,5,1,1,6,4,3,2,2522.62,2,943.9,unknown_male06.jpg,0
7,24,1,1,6,2,2,24,3,1,2,2874.04,1,1416.63,unknown_female24.jpg,0
7,24,1,1,7,2,1,11,3,2,2,2991.2,3,472.94,unknown_male11.jpg,0
7,24,1,1,8,1,1,23,3,2,2,2823.27,3,224.02,unknown_male23.jpg,0
7,24,1,1,9,1,1,12,2,1,2,1912.92,1,744.08,unknown_male12.jpg,0
7,24,1,1,10,1,2,12,3,3,1,2835.25,1,115.3,unknown_female12.jpg,0
7,24,1,1,11,2,1,20,1,1,1,3016.37,3,536.71,unknown_male20.jpg,0
7,24,1,1,12,1,1,2,4,2,2,2196.33,1,455.65,unknown_male02.jpg,0
7,24,1,1,13,2,1,5,4,2,2,3150.71,1,305.42,unknown_male05.jpg,0
7,24,1,1,14,2,2,9,3,3,1,3526.81,1,250.16,unknown_female09.jpg,0
7,24,1,1,15,2,1,18,2,2,1,1601.69,2,2101.4,unknown_male18.jpg,0
7,24,1,1,16,1,1,7,3,1,2,2487.3,2,502.02,unknown_male07.jpg,0
7,24,1,1,17,2,2,23,1,3,2,1219,1,326.84,unknown_female23.jpg,0
7,24,1,1,18,2,1,8,3,3,1,1299.52,3,1371.84,unknown_male08.jpg,0
7,24,1,1,19,1,2,21,1,1,1,2364.51,1,664.08,unknown_female21.jpg,0
7,24,1,1,20,1,2,18,2,3,2,1798.05,2,353.52,unknown_female18.jpg,0
7,24,1,1,21,1,2,3,4,1,2,1540.76,1,419.29,unknown_female03.jpg,0
7,24,1,1,22,2,2,15,1,1,1,1075.8,3,1429.94,unknown_female15.jpg,0
7,24,1,1,23,1,1,16,1,2,2,1900.48,1,2675.62,unknown_male16.jpg,0
7,24,1,1,24,1,1,15,2,4,2,5605.78,3,537.69,unknown_male15.jpg,0
7,24,1,1,25,2,2,6,3,4,2,6357.27,2,33.79,unknown_female06.jpg,0
7,24,1,1,26,2,2,2,2,1,2,3418.38,1,601.9,unknown_female02.jpg,0
7,24,1,1,27,1,1,14,2,2,1,1914.66,3,377.18,unknown_male14.jpg,0
7,24,1,1,28,2,2,19,4,2,2,4291.8,3,2118.99,unknown_female19.jpg,0
7,24,1,1,29,1,2,14,4,4,1,1640.17,3,1290.58,unknown_female14.jpg,0
7,24,1,1,30,1,2,8,2,2,1,5486.63,2,207.49,unknown_female08.jpg,0
7,24,1,1,31,2,2,13,1,3,2,1489.03,1,641.71,unknown_female13.jpg,0
7,24,1,1,32,1,1,9,1,1,1,1937.16,3,478.89,unknown_male09.jpg,0
7,24,1,1,33,1,2,11,3,3,1,1260.61,2,399.02,unknown_female11.jpg,0
7,24,1,1,34,1,2,1,4,2,2,9064.26,1,1163.45,unknown_female01.jpg,0
7,24,1,1,35,1,2,22,1,1,1,1788.44,2,648.54,unknown_female22.jpg,0
7,24,1,1,36,1,1,1,1,2,2,6055.3,1,800.36,unknown_male01.jpg,0
7,24,1,1,37,1,2,17,2,3,2,2104.77,1,327.59,unknown_female17.jpg,0
7,24,1,1,38,2,1,21,2,4,2,1651.5,1,165.17,unknown_male21.jpg,0
7,24,1,1,39,1,2,4,1,4,2,960.15,1,167.18,unknown_female04.jpg,0
7,24,1,1,40,1,2,20,3,2,2,1026.15,1,62.41,unknown_female20.jpg,0
7,24,1,1,41,2,1,17,1,1,1,973.54,1,627.84,unknown_male17.jpg,0
7,24,1,1,42,1,1,4,3,3,1,1059.94,2,958.84,unknown_male04.jpg,0
7,24,1,1,43,2,2,16,2,1,2,912.89,1,201.39,unknown_female16.jpg,0
7,24,1,1,44,2,2,7,2,1,2,2002.93,1,157.91,unknown_female07.jpg,0
7,24,1,1,45,2,1,3,3,3,1,2001.61,1,36.63,unknown_male03.jpg,0
7,24,1,1,46,2,2,10,4,2,2,789.14,1,107.2,unknown_female10.jpg,0
7,24,1,1,47,2,1,10,4,1,2,1232.91,1,84.08,unknown_male10.jpg,0
7,24,1,1,48,1,1,19,4,2,2,1530.59,2,281.1,unknown_male19.jpg,0
8,22,2,2,1,2,1,15,3,2,2,3470.41,2,739.9,famous_male15.jpg,0
8,22,2,2,2,1,2,5,3,3,1,3463.13,2,877.26,famous_female05.jpg,0
8,22,2,2,3,2,1,5,1,1,1,1770.22,4,1206.96,famous_male05.jpg,0
8,22,2,2,4,2,1,19,1,1,1,1278.6,4,688.32,famous_male19.jpg,0
8,22,2,2,5,1,2,24,3,3,1,1597.64,4,609.38,famous_female24.jpg,0
8,22,2,2,6,2,2,12,3,3,1,1201.5,4,630.03,famous_female12.jpg,0
8,22,2,2,7,1,1,23,2,2,1,1717.44,4,668.3,famous_male23.jpg,0
8,22,2,2,8,1,1,18,1,1,1,1498.27,4,690.24,famous_male18.jpg,0
8,22,2,2,9,2,2,6,4,4,1,1439.56,3,434.32,famous_female06.jpg,0
8,22,2,2,10,2,2,11,3,3,1,1482.12,2,866.82,famous_female11.jpg,0
8,22,2,2,11,2,2,2,1,1,1,1272.39,4,1010.09,famous_female02.jpg,0
8,22,2,2,12,2,1,10,4,3,2,1890.13,1,385.98,famous_male10.jpg,0
8,22,2,2,13,1,2,17,1,1,1,1907.93,3,1435.1,famous_female17.jpg,0
8,22,2,2,14,1,1,17,4,4,1,2632.91,1,753.29,famous_male17.jpg,0
8,22,2,2,15,2,1,4,3,2,2,6899.8,3,953.98,famous_male04.jpg,0
8,22,2,2,16,2,2,14,2,2,1,2028.08,3,1086.33,famous_female14.jpg,0
8,22,2,2,17,1,1,12,2,3,2,4674.86,2,901.96,famous_male12.jpg,0
8,22,2,2,18,2,2,19,1,2,2,1674.2,1,547.13,famous_female19.jpg,0
8,22,2,2,19,2,1,3,3,3,1,998.05,3,498.96,famous_male03.jpg,0
8,22,2,2,20,1,2,22,2,1,2,2655.98,3,1047.66,famous_female22.jpg,0
8,22,2,2,21,1,1,6,3,3,1,1037.62,2,841.12,famous_male06.jpg,0
8,22,2,2,22,2,2,1,4,4,1,1104.15,3,1128.86,famous_female01.jpg,0
8,22,2,2,23,2,1,24,4,4,1,1723.98,4,546.86,famous_male24.jpg,0
8,22,2,2,24,1,2,9,1,2,2,2509.78,3,699.75,famous_female09.jpg,0
8,22,2,2,25,1,2,4,2,2,1,1800.38,3,523.77,famous_female04.jpg,0
8,22,2,2,26,2,1,1,2,2,1,943.99,4,615.75,famous_male01.jpg,0
8,22,2,2,27,2,2,16,2,1,2,2095.87,2,855.41,famous_female16.jpg,0
8,22,2,2,28,2,1,2,4,4,1,1645.67,2,440.06,famous_male02.jpg,0
8,22,2,2,29,2,1,8,1,1,1,1799.79,4,475.22,famous_male08.jpg,0
8,22,2,2,30,1,2,21,2,2,1,1033.52,4,1797.09,famous_female21.jpg,0
8,22,2,2,31,1,2,20,4,4,1,1933.29,3,547.06,famous_female20.jpg,0
8,22,2,2,32,1,1,21,4,1,2,2149.97,2,658.65,famous_male21.jpg,0
8,22,2,2,33,1,1,16,2,2,1,2305.36,3,663.71,famous_male16.jpg,0
8,22,2,2,34,2,2,10,3,2,2,2117.73,1,2307.79,famous_female10.jpg,0
8,22,2,2,35,2,1,22,2,2,1,1685.3,1,1445.6,famous_male22.jpg,0
8,22,2,2,36,1,2,7,3,3,1,955.41,3,1218.41,famous_female07.jpg,0
8,22,2,2,37,1,2,23,4,4,1,1025.31,4,573.62,famous_female23.jpg,0
8,22,2,2,38,1,2,15,1,1,1,1855.79,2,665.06,famous_female15.jpg,0
8,22,2,2,39,1,1,7,3,1,2,1999.06,2,402.07,famous_male07.jpg,0
8,22,2,2,40,2,1,9,2,2,1,1459.18,4,717.31,famous_male09.jpg,0
8,22,2,2,41,1,1,14,1,3,2,2529.19,2,726.48,famous_male14.jpg,0
8,22,2,2,42,1,1,13,4,2,2,2282.4,1,817.49,famous_male13.jpg,0
8,22,2,2,43,2,2,3,4,4,1,2601.14,4,1611.01,famous_female03.jpg,0
8,22,2,2,44,2,2,18,2,2,1,1673.88,2,618.8,famous_female18.jpg,0
8,22,2,2,45,1,2,8,4,4,1,3858.92,2,1488.27,famous_female08.jpg,0
8,22,2,2,46,1,1,20,3,1,2,3044,1,547.65,famous_male20.jpg,0
8,22,2,2,47,2,2,13,1,1,1,6222.57,2,624.71,famous_female13.jpg,0
8,22,2,2,48,1,1,11,1,1,1,2176.71,4,588.72,famous_male11.jpg,0
9,25,1,1,1,2,2,9,1,1,1,6127.51,1,2293.79,unknown_female09.jpg,0
9,25,1,1,2,1,1,12,1,1,1,2072.02,4,1552.17,unknown_male12.jpg,0
9,25,1,1,3,2,1,19,4,4,1,2401.08,2,1955.38,unknown_male19.jpg,0
9,25,1,1,4,2,2,11,2,2,1,2723.51,2,824.4,unknown_female11.jpg,0
9,25,1,1,5,2,2,5,2,4,2,2472.14,2,735.51,unknown_female05.jpg,0
9,25,1,1,6,2,2,8,4,4,1,2258.74,1,803.2,unknown_female08.jpg,0
9,25,1,1,7,2,1,22,4,4,1,2931.64,3,528.14,unknown_male22.jpg,0
9,25,1,1,8,1,2,7,2,2,1,1796.41,4,399.81,unknown_female07.jpg,0
9,25,1,1,9,1,1,21,3,3,1,1513.03,4,336.95,unknown_male21.jpg,0
9,25,1,1,10,2,1,3,2,4,2,2896.01,1,285.97,unknown_male03.jpg,0
9,25,1,1,11,1,1,16,4,4,1,1604.07,4,615.87,unknown_male16.jpg,0
9,25,1,1,12,2,2,6,4,4,1,2295.93,1,543.06,unknown_female06.jpg,0
9,25,1,1,13,1,1,4,3,3,1,1553.94,4,519.75,unknown_male04.jpg,0
9,25,1,1,14,1,1,17,1,1,1,1492.09,4,292.78,unknown_male17.jpg,0
9,25,1,1,15,2,1,7,4,4,1,3434.05,3,2272.93,unknown_male07.jpg,0
9,25,1,1,16,2,2,18,1,2,2,3043.82,3,291.45,unknown_female18.jpg,0
9,25,1,1,17,1,2,24,1,1,1,1352.83,4,327.11,unknown_female24.jpg,0
9,25,1,1,18,2,2,10,3,2,2,1619.03,1,1086.13,unknown_female10.jpg,0
9,25,1,1,19,1,1,1,2,2,1,4146.68,2,1508.13,unknown_male01.jpg,0
9,25,1,1,20,1,2,17,3,2,2,5751.18,3,2101.55,unknown_female17.jpg,0
9,25,1,1,21,1,2,20,2,2,1,1671.45,3,584.38,unknown_female20.jpg,0
9,25,1,1,22,1,2,22,4,2,2,4321.91,4,1075.71,unknown_female22.jpg,0
9,25,1,1,23,2,2,12,1,2,2,1784.93,3,676.99,unknown_female12.jpg,0
9,25,1,1,24,1,2,15,1,1,1,1562.93,4,1536.83,unknown_female15.jpg,0
9,25,1,1,25,1,1,9,2,2,1,1018.45,4,278.83,unknown_male09.jpg,0
9,25,1,1,26,2,2,14,3,4,2,1828.75,2,487.44,unknown_female14.jpg,0
9,25,1,1,27,2,1,20,3,4,2,1069.18,2,471.28,unknown_male20.jpg,0
9,25,1,1,28,1,1,6,1,1,1,11237.64,3,2726.08,unknown_male06.jpg,0
9,25,1,1,29,2,2,4,4,1,2,1790.06,1,2306.15,unknown_female04.jpg,0
9,25,1,1,30,1,2,2,4,4,1,2491.61,4,2210.35,unknown_female02.jpg,0
9,25,1,1,31,2,1,2,2,4,2,1583.99,1,340.45,unknown_male02.jpg,0
9,25,1,1,32,1,1,13,3,3,1,2776.4,4,275.26,unknown_male13.jpg,0
9,25,1,1,33,1,2,1,4,4,1,1841.27,4,251.36,unknown_female01.jpg,0
9,25,1,1,34,1,2,16,2,2,1,1506.8,4,274.71,unknown_female16.jpg,0
9,25,1,1,35,2,1,18,1,1,1,1665.45,1,218.46,unknown_male18.jpg,0
9,25,1,1,36,2,2,21,3,1,2,2627.3,1,164.44,unknown_female21.jpg,0
9,25,1,1,37,2,2,23,2,1,2,943.45,1,87.22,unknown_female23.jpg,0
9,25,1,1,38,1,2,19,3,3,1,1197.65,4,258.16,unknown_female19.jpg,0
9,25,1,1,39,2,1,10,3,1,2,1176.94,1,294.9,unknown_male10.jpg,0
9,25,1,1,40,2,1,8,1,1,1,900.25,1,117.44,unknown_male08.jpg,0
9,25,1,1,41,2,1,5,1,1,1,3370.49,4,244.11,unknown_male05.jpg,0
9,25,1,1,42,1,1,14,4,4,1,5027.56,3,448.02,unknown_male14.jpg,0
9,25,1,1,43,1,1,11,2,2,1,1575.13,4,260.25,unknown_male11.jpg,0
9,25,1,1,44,1,1,15,4,4,1,4107.02,4,254.01,unknown_male15.jpg,0
9,25,1,1,45,1,2,13,1,3,2,2421.46,2,1022.91,unknown_female13.jpg,0
9,25,1,1,46,2,1,23,3,3,1,1878.26,3,870.81,unknown_male23.jpg,0
9,25,1,1,47,2,1,24,2,4,2,2276.45,4,388.21,unknown_male24.jpg,0
9,25,1,1,48,1,2,3,3,1,2,2614.13,2,1079.91,unknown_female03.jpg,0
10,28,2,2,1,2,1,3,4,4,1,3049.43,4,2408.32,famous_male03.jpg,0
10,28,2,2,2,2,2,4,3,3,1,1869.65,4,942.19,famous_female04.jpg,0
10,28,2,2,3,1,1,18,3,3,1,1617.03,4,724.08,famous_male18.jpg,0
10,28,2,2,4,1,2,19,2,1,2,5183.99,1,950.1,famous_female19.jpg,0
10,28,2,2,5,1,2,3,4,4,1,1736.25,4,502.39,famous_female03.jpg,0
10,28,2,2,6,2,1,19,3,2,2,3555.35,4,973.34,famous_male19.jpg,0
10,28,2,2,7,2,1,9,4,4,1,1342.78,4,501.67,famous_male09.jpg,0
10,28,2,2,8,1,2,21,1,1,1,1434.72,4,501.45,famous_female21.jpg,0
10,28,2,2,9,1,1,13,4,4,1,1626.47,4,373.56,famous_male13.jpg,0
10,28,2,2,10,2,1,14,1,1,1,1272.07,4,401.83,famous_male14.jpg,0
10,28,2,2,11,1,1,22,4,4,1,2195.04,4,566.31,famous_male22.jpg,0
10,28,2,2,12,1,2,23,4,4,1,1384.49,4,701.39,famous_female23.jpg,0
10,28,2,2,13,1,2,13,3,3,1,1161.98,4,504.59,famous_female13.jpg,0
10,28,2,2,14,2,2,20,1,1,1,2277.61,3,765.38,famous_female20.jpg,0
10,28,2,2,15,2,1,16,3,3,1,1103.18,4,1023.92,famous_male16.jpg,0
10,28,2,2,16,2,1,15,2,1,2,2959.26,3,2034.36,famous_male15.jpg,0
10,28,2,2,17,2,2,6,2,2,1,1703.08,4,486.61,famous_female06.jpg,0
10,28,2,2,18,2,1,2,2,2,1,1020.32,4,640.54,famous_male02.jpg,0
10,28,2,2,19,1,2,22,2,3,2,2783.96,3,570.1,famous_female22.jpg,0
10,28,2,2,20,1,2,16,2,2,1,1004.31,4,473.24,famous_female16.jpg,0
10,28,2,2,21,1,1,23,3,3,1,2375.53,2,731.16,famous_male23.jpg,0
10,28,2,2,22,2,1,10,4,4,1,2094.37,4,853.88,famous_male10.jpg,0
10,28,2,2,23,2,1,1,2,2,1,1172.13,4,394.1,famous_male01.jpg,0
10,28,2,2,24,2,2,9,3,3,1,820,4,536.61,famous_female09.jpg,0
10,28,2,2,25,1,1,24,1,2,2,9716.23,2,1244.17,famous_male24.jpg,0
10,28,2,2,26,2,1,17,1,4,2,4898.37,2,452.46,famous_male17.jpg,0
10,28,2,2,27,2,2,14,4,4,1,1163.54,4,361.45,famous_female14.jpg,0
10,28,2,2,28,2,2,7,4,3,2,2292.06,3,355.15,famous_female07.jpg,0
10,28,2,2,29,1,2,11,1,3,2,3302.45,3,298.88,famous_female11.jpg,0
10,28,2,2,30,2,2,1,2,2,1,5920.28,1,783.71,famous_female01.jpg,0
10,28,2,2,31,1,1,5,2,2,1,4096.76,3,652.32,famous_male05.jpg,0
10,28,2,2,32,2,2,2,1,3,2,4059.04,2,920.01,famous_female02.jpg,0
10,28,2,2,33,1,2,10,1,1,1,3875.58,3,632.2,famous_female10.jpg,0
10,28,2,2,34,1,1,4,1,2,2,3455.64,2,861.75,famous_male04.jpg,0
10,28,2,2,35,1,1,20,2,2,1,1051.39,4,1078.19,famous_male20.jpg,0
10,28,2,2,36,1,2,8,3,3,1,2155.38,4,368.1,famous_female08.jpg,0
10,28,2,2,37,2,2,12,4,4,1,2226.65,4,980.57,famous_female12.jpg,0
10,28,2,2,38,2,1,11,3,1,2,3277.31,1,1051.14,famous_male11.jpg,0
10,28,2,2,39,2,2,17,1,3,2,1953.05,4,342.14,famous_female17.jpg,0
10,28,2,2,40,1,1,6,4,4,1,14042.14,2,573.01,famous_male06.jpg,0
10,28,2,2,41,2,2,15,3,3,1,3743.17,1,1289.46,famous_female15.jpg,0
10,28,2,2,42,1,1,12,1,1,1,8925.65,2,407.15,famous_male12.jpg,0
10,28,2,2,43,1,2,24,4,4,1,7888.33,3,701.2,famous_female24.jpg,0
10,28,2,2,44,1,1,21,2,2,1,1977.82,3,318.18,famous_male21.jpg,0
10,28,2,2,45,1,1,8,3,3,1,1418.88,4,134.31,famous_male08.jpg,0
10,28,2,2,46,2,2,18,2,1,2,1690.71,1,259.03,famous_female18.jpg,0
10,28,2,2,47,1,2,5,3,3,1,2498.42,3,633.13,famous_female05.jpg,0
10,28,2,2,48,2,1,7,1,1,1,2296.53,4,311.66,famous_male07.jpg,0
11,22,2,1,1,2,1,4,3,4,2,14319.09,2,854.81,unknown_male04.jpg,0
11,22,2,1,2,1,2,9,2,2,1,15773.18,2,80.02,unknown_female09.jpg,0
11,22,2,1,3,2,2,13,4,3,2,16310.49,2,1650.34,unknown_female13.jpg,0
11,22,2,1,4,2,1,14,4,4,1,9223.06,1,11.97,unknown_male14.jpg,0
11,22,2,1,5,2,1,24,3,3,1,4373.29,4,100.97,unknown_male24.jpg,0
11,22,2,1,6,1,2,15,1,1,1,2402.75,4,116.99,unknown_female15.jpg,0
11,22,2,1,7,2,2,16,2,2,1,4249.95,1,1207.28,unknown_female16.jpg,0
11,22,2,1,8,2,2,18,4,3,2,4470.95,1,722.41,unknown_female18.jpg,0
11,22,2,1,9,2,1,20,4,4,1,3430.28,4,469.87,unknown_male20.jpg,0
11,22,2,1,10,2,2,23,3,3,1,2156.29,3,1160.95,unknown_female23.jpg,0
11,22,2,1,11,1,1,13,3,3,1,1738.72,4,336.84,unknown_male13.jpg,0
11,22,2,1,12,1,1,19,2,2,1,2516.85,4,266.13,unknown_male19.jpg,0
11,22,2,1,13,2,2,10,1,1,1,1808.96,3,2332.28,unknown_female10.jpg,0
11,22,2,1,14,1,2,4,1,1,1,1548.33,4,194.23,unknown_female04.jpg,0
11,22,2,1,15,2,1,7,2,3,2,3219.76,3,2275.74,unknown_male07.jpg,0
11,22,2,1,16,1,1,8,2,1,2,22982.67,2,1179.52,unknown_male08.jpg,0
11,22,2,1,17,1,2,8,2,3,2,4387.84,3,386.79,unknown_female08.jpg,0
11,22,2,1,18,1,1,3,2,2,1,6612.71,2,590.68,unknown_male03.jpg,0
11,22,2,1,19,2,2,7,4,3,2,7296.21,1,85.53,unknown_female07.jpg,0
11,22,2,1,20,2,1,12,1,1,1,5364.02,4,354.44,unknown_male12.jpg,0
11,22,2,1,21,2,2,20,3,2,2,3981.79,1,886.32,unknown_female20.jpg,0
11,22,2,1,22,1,1,23,1,3,2,3363.1,3,405.55,unknown_male23.jpg,0
11,22,2,1,23,1,1,21,3,4,2,4182.73,4,318.79,unknown_male21.jpg,0
11,22,2,1,24,1,2,12,4,4,1,2235.47,4,844.63,unknown_female12.jpg,0
11,22,2,1,25,2,1,16,2,2,1,2650.91,3,378.66,unknown_male16.jpg,0
11,22,2,1,26,2,1,9,3,3,1,2844.6,1,340.62,unknown_male09.jpg,0
11,22,2,1,27,2,2,11,2,3,2,4088.6,3,852.12,unknown_female11.jpg,0
11,22,2,1,28,1,1,17,3,3,1,1386.47,4,239.29,unknown_male17.jpg,0
11,22,2,1,29,1,1,6,1,3,2,3247.46,3,158.71,unknown_male06.jpg,0
11,22,2,1,30,2,1,1,1,4,2,1226.42,1,286.23,unknown_male01.jpg,0
11,22,2,1,31,2,2,2,3,1,2,2756.34,3,463.83,unknown_female02.jpg,0
11,22,2,1,32,1,2,21,3,1,2,2982.22,3,688.68,unknown_female21.jpg,0
11,22,2,1,33,2,2,1,2,3,2,1821.95,1,408.63,unknown_female01.jpg,0
11,22,2,1,34,1,2,24,1,1,1,4657.83,2,1029.62,unknown_female24.jpg,0
11,22,2,1,35,1,2,14,3,3,1,4236.25,4,505.54,unknown_female14.jpg,0
11,22,2,1,36,2,1,5,4,3,2,4174.55,3,1310.7,unknown_male05.jpg,0
11,22,2,1,37,1,1,15,1,2,2,3226.09,3,690.07,unknown_male15.jpg,0
11,22,2,1,38,1,2,17,4,4,1,1583.33,4,1147.75,unknown_female17.jpg,0
11,22,2,1,39,2,1,11,2,3,2,3037.51,1,469.12,unknown_male11.jpg,0
11,22,2,1,40,1,1,2,4,2,2,24219.53,3,356.61,unknown_male02.jpg,0
11,22,2,1,41,2,2,3,1,1,1,2663.92,2,295.61,unknown_female03.jpg,0
11,22,2,1,42,1,2,19,2,2,1,2173.01,4,528.97,unknown_female19.jpg,0
11,22,2,1,43,1,2,6,3,1,2,2716.53,4,929.49,unknown_female06.jpg,0
11,22,2,1,44,1,2,22,4,4,1,5028.32,4,312.77,unknown_female22.jpg,0
11,22,2,1,45,2,2,5,1,1,1,3453.44,4,1747.57,unknown_female05.jpg,0
11,22,2,1,46,1,1,10,4,4,1,2116.09,3,618.24,unknown_male10.jpg,0
11,22,2,1,47,2,1,18,1,4,2,1634.28,2,644.67,unknown_male18.jpg,0
11,22,2,1,48,1,1,22,4,1,2,5699.34,2,707.83,unknown_male22.jpg,0
12,19,1,2,1,2,2,8,3,3,1,6724.74,1,681.88,famous_female08.jpg,0
12,19,1,2,2,2,1,24,2,2,1,2983.21,3,656.98,famous_male24.jpg,0
12,19,1,2,3,2,1,7,1,4,2,4751.66,1,319.32,famous_male07.jpg,0
12,19,1,2,4,2,1,9,4,3,2,7939.99,1,230.7,famous_male09.jpg,0
12,19,1,2,5,2,2,20,4,2,2,1934.91,2,236.66,famous_female20.jpg,0
12,19,1,2,6,1,2,14,4,2,2,2676.88,4,555.85,famous_female14.jpg,0
12,19,1,2,7,1,1,19,3,3,1,1870.77,4,231.33,famous_male19.jpg,0
12,19,1,2,8,1,1,5,4,4,1,1151.53,4,574.14,famous_male05.jpg,0
12,19,1,2,9,2,2,19,2,2,1,1416.3,4,163.84,famous_female19.jpg,0
12,19,1,2,10,2,1,13,2,3,2,1902.73,1,254.01,famous_male13.jpg,0
12,19,1,2,11,1,1,21,1,2,2,2965.46,2,32.55,famous_male21.jpg,0
12,19,1,2,12,1,2,2,3,3,1,3433.15,2,864.66,famous_female02.jpg,0
12,19,1,2,13,1,2,16,2,2,1,3566.29,2,56.3,famous_female16.jpg,0
12,19,1,2,14,1,1,3,1,3,2,1616.12,2,787.14,famous_male03.jpg,0
12,19,1,2,15,2,2,5,3,3,1,1852.3,2,389.54,famous_female05.jpg,0
12,19,1,2,16,2,2,17,1,1,1,1079.43,4,40.9,famous_female17.jpg,0
12,19,1,2,17,1,1,23,4,2,2,2169.46,2,541.41,famous_male23.jpg,0
12,19,1,2,18,1,1,17,2,3,2,2505.06,1,47.04,famous_male17.jpg,0
12,19,1,2,19,1,2,12,4,2,2,1630.92,3,185.34,famous_female12.jpg,0
12,19,1,2,20,1,2,18,2,1,2,3891.53,1,215.51,famous_female18.jpg,0
12,19,1,2,21,1,2,13,2,3,2,4016.35,1,231.54,famous_female13.jpg,0
12,19,1,2,22,1,1,1,2,3,2,2719.7,1,332.57,famous_male01.jpg,0
12,19,1,2,23,1,2,7,1,4,2,1704.57,2,760.11,famous_female07.jpg,0
12,19,1,2,24,2,1,20,3,1,2,2042.65,4,364.2,famous_male20.jpg,0
12,19,1,2,25,2,1,12,2,2,1,1358.82,4,381.04,famous_male12.jpg,0
12,19,1,2,26,2,2,1,4,4,1,958.95,4,1261.94,famous_female01.jpg,0
12,19,1,2,27,2,2,3,1,1,1,1203.45,4,520.05,famous_female03.jpg,0
12,19,1,2,28,1,2,15,3,3,1,3364.33,4,366.66,famous_female15.jpg,0
12,19,1,2,29,2,2,9,3,3,1,1953.27,2,670.38,famous_female09.jpg,0
12,19,1,2,30,1,2,11,1,1,1,1900.31,1,411.51,famous_female11.jpg,0
12,19,1,2,31,2,2,23,4,2,2,1803.99,1,295.36,famous_female23.jpg,0
12,19,1,2,32,2,1,6,1,1,1,1228.79,4,359.88,famous_male06.jpg,0
12,19,1,2,33,2,1,15,3,3,1,1483.14,1,379.83,famous_male15.jpg,0
12,19,1,2,34,2,2,6,1,3,2,2989.73,1,487.47,famous_female06.jpg,0
12,19,1,2,35,2,1,14,4,3,2,11157.1,1,288.97,famous_male14.jpg,0
12,19,1,2,36,1,1,8,4,2,2,2871.08,2,437.69,famous_male08.jpg,0
12,19,1,2,37,2,1,18,1,4,2,1725.49,1,332.33,famous_male18.jpg,0
12,19,1,2,38,2,2,21,2,4,2,1408.33,2,572.46,famous_female21.jpg,0
12,19,1,2,39,1,1,2,3,2,2,1446.66,1,920.72,famous_male02.jpg,0
12,19,1,2,40,2,1,10,3,3,1,1828.24,2,190.9,famous_male10.jpg,0
12,19,1,2,41,1,1,11,3,3,1,3017.24,2,321.51,famous_male11.jpg,0
12,19,1,2,42,2,1,4,4,2,2,4270.26,1,434.09,famous_male04.jpg,0
12,19,1,2,43,2,2,22,2,3,2,1937.84,1,399.74,famous_female22.jpg,0
12,19,1,2,44,1,2,4,1,3,2,1488.86,1,257.58,famous_female04.jpg,0
12,19,1,2,45,1,1,22,2,2,1,2649.02,2,792.69,famous_male22.jpg,0
12,19,1,2,46,1,2,10,3,1,2,1505.8,1,49.74,famous_female10.jpg,0
12,19,1,2,47,1,1,16,1,3,2,1073.65,2,355.76,famous_male16.jpg,0
12,19,1,2,48,1,2,24,4,1,2,1687.07,1,231.38,famous_female24.jpg,0
13,25,2,1,1,1,1,20,2,4,2,3646.08,3,3308.58,unknown_male20.jpg,0
13,25,2,1,2,2,2,21,4,4,1,2196.16,3,1175.47,unknown_female21.jpg,0
13,25,2,1,3,1,2,19,1,3,2,2848.46,3,1736.42,unknown_female19.jpg,0
13,25,2,1,4,2,1,4,1,1,1,4337.73,1,1010.83,unknown_male04.jpg,0
13,25,2,1,5,2,1,19,1,2,2,6538.17,1,798.93,unknown_male19.jpg,0
13,25,2,1,6,1,2,3,2,3,2,3167.39,2,6473.37,unknown_female03.jpg,0
13,25,2,1,7,1,1,12,4,4,1,3268.81,4,1514.62,unknown_male12.jpg,0
13,25,2,1,8,2,2,6,1,2,2,8428.99,1,2978.76,unknown_female06.jpg,0
13,25,2,1,9,1,2,12,2,4,2,16744.31,3,3673.9,unknown_female12.jpg,0
13,25,2,1,10,2,1,6,3,3,1,2786.08,2,1972.24,unknown_male06.jpg,0
13,25,2,1,11,2,1,10,3,1,2,11147.69,1,1240.23,unknown_male10.jpg,0
13,25,2,1,12,2,2,17,1,3,2,14966.44,2,458.84,unknown_female17.jpg,0
13,25,2,1,13,2,2,20,2,2,1,4561.9,2,657.94,unknown_female20.jpg,0
13,25,2,1,14,2,1,15,4,4,1,6576.67,2,3564.04,unknown_male15.jpg,0
13,25,2,1,15,1,1,16,4,4,1,3457.13,3,1911.26,unknown_male16.jpg,0
13,25,2,1,16,2,2,22,1,3,2,2977.51,2,2131.95,unknown_female22.jpg,0
13,25,2,1,17,2,1,7,3,1,2,5676.39,1,1325.59,unknown_male07.jpg,0
13,25,2,1,18,1,2,2,3,3,1,6192.35,2,2051.81,unknown_female02.jpg,0
13,25,2,1,19,2,1,23,1,2,2,3487.81,1,812.53,unknown_male23.jpg,0
13,25,2,1,20,1,2,18,2,2,1,3316.99,3,1280.77,unknown_female18.jpg,0
13,25,2,1,21,1,1,1,3,3,1,1180.85,3,1314.05,unknown_male01.jpg,0
13,25,2,1,22,1,1,2,2,4,2,2276.79,3,1324.6,unknown_male02.jpg,0
13,25,2,1,23,1,1,13,3,3,1,11359.35,2,970.77,unknown_male13.jpg,0
13,25,2,1,24,2,1,18,4,3,2,15988.16,1,1645.98,unknown_male18.jpg,0
13,25,2,1,25,1,1,11,2,3,2,6555.39,3,3903.54,unknown_male11.jpg,0
13,25,2,1,26,1,1,21,3,2,2,6605.93,1,696.61,unknown_male21.jpg,0
13,25,2,1,27,1,2,4,1,3,2,22653.26,2,1160.03,unknown_female04.jpg,0
13,25,2,1,28,2,2,13,4,2,2,9369.82,1,552.41,unknown_female13.jpg,0
13,25,2,1,29,1,2,11,4,2,2,6155.27,2,848.19,unknown_female11.jpg,0
13,25,2,1,30,2,2,1,4,1,2,1894.53,1,366.38,unknown_female01.jpg,0
13,25,2,1,31,2,1,14,2,3,2,4177,2,1441.05,unknown_male14.jpg,0
13,25,2,1,32,2,1,17,2,1,2,9342.92,1,838.95,unknown_male17.jpg,0
13,25,2,1,33,2,2,10,3,2,2,3934.01,1,247.83,unknown_female10.jpg,0
13,25,2,1,34,1,1,8,4,2,2,11175.29,3,162.46,unknown_male08.jpg,0
13,25,2,1,35,1,2,7,4,4,1,8365.46,3,974.06,unknown_female07.jpg,0
13,25,2,1,36,1,1,5,1,3,2,1447.48,3,377.5,unknown_male05.jpg,0
13,25,2,1,37,1,1,22,1,1,1,1804.05,2,1327.52,unknown_male22.jpg,0
13,25,2,1,38,2,2,5,3,1,2,6722.22,1,136.08,unknown_female05.jpg,0
13,25,2,1,39,1,2,16,3,3,1,2236.4,3,1973.57,unknown_female16.jpg,0
13,25,2,1,40,1,2,23,4,3,2,7413.06,3,717.52,unknown_female23.jpg,0
13,25,2,1,41,1,2,8,3,3,1,2609.43,2,3635.29,unknown_female08.jpg,0
13,25,2,1,42,2,1,3,2,2,1,17164.79,1,476.9,unknown_male03.jpg,0
13,25,2,1,43,2,2,15,2,1,2,3467.26,1,104.83,unknown_female15.jpg,0
13,25,2,1,44,2,2,9,3,3,1,1214.59,2,882.35,unknown_female09.jpg,0
13,25,2,1,45,1,1,24,1,1,1,9295.3,3,1672.75,unknown_male24.jpg,0
13,25,2,1,46,1,2,24,1,2,2,4828.82,3,737.59,unknown_female24.jpg,0
13,25,2,1,47,2,2,14,2,2,1,1132.76,3,2364.21,unknown_female14.jpg,0
13,25,2,1,48,2,1,9,4,1,2,4963.49,1,114.75,unknown_male09.jpg,0
14,22,2,2,1,2,1,12,3,3,1,6179.86,2,1992.02,famous_male12.jpg,0
14,22,2,2,2,2,1,1,2,2,1,1806.75,4,1002.16,famous_male01.jpg,0
14,22,2,2,3,1,1,15,4,4,1,4610.23,3,1104.09,famous_male15.jpg,0
14,22,2,2,4,1,1,21,2,2,1,1595.96,3,2807.72,famous_male21.jpg,0
14,22,2,2,5,2,2,2,4,4,1,1268.21,4,469.93,famous_female02.jpg,0
14,22,2,2,6,2,2,7,3,3,1,1268.29,4,294.12,famous_female07.jpg,0
14,22,2,2,7,2,2,19,3,3,1,1100.19,4,100.89,famous_female19.jpg,0
14,22,2,2,8,2,2,9,2,2,1,2370.67,3,390.26,famous_female09.jpg,0
14,22,2,2,9,1,1,16,3,3,1,976.1,4,110.47,famous_male16.jpg,0
14,22,2,2,10,2,2,12,2,2,1,859.56,4,166.73,famous_female12.jpg,0
14,22,2,2,11,2,1,6,1,1,1,2617.78,1,42.85,famous_male06.jpg,0
14,22,2,2,12,2,2,4,3,3,1,1171.38,4,57.36,famous_female04.jpg,0
14,22,2,2,13,1,2,8,3,3,1,793.27,4,63.24,famous_female08.jpg,0
14,22,2,2,14,1,2,18,3,4,2,1334.44,3,285.39,famous_female18.jpg,0
14,22,2,2,15,1,1,19,3,3,1,2427.47,4,92.95,famous_male19.jpg,0
14,22,2,2,16,1,1,22,2,1,2,3779.38,2,100.29,famous_male22.jpg,0
14,22,2,2,17,1,1,17,3,1,2,2842.09,2,978.1,famous_male17.jpg,0
14,22,2,2,18,1,1,8,1,1,1,2939.54,2,247.4,famous_male08.jpg,0
14,22,2,2,19,2,1,5,2,2,1,886.84,4,1088.69,famous_male05.jpg,0
14,22,2,2,20,2,1,10,3,3,1,3557.21,3,119.12,famous_male10.jpg,0
14,22,2,2,21,1,1,7,4,2,2,2204.15,1,46.78,famous_male07.jpg,0
14,22,2,2,22,2,2,1,1,1,1,4366.72,1,71.04,famous_female01.jpg,0
14,22,2,2,23,1,1,14,1,1,1,11222.24,3,575.25,famous_male14.jpg,0
14,22,2,2,24,1,1,2,4,2,2,1145.42,1,272.1,famous_male02.jpg,0
14,22,2,2,25,1,1,20,2,3,2,1870.9,1,167.47,famous_male20.jpg,0
14,22,2,2,26,2,1,18,4,3,2,1402.42,1,118.58,famous_male18.jpg,0
14,22,2,2,27,1,2,22,1,1,1,3091.67,1,129.28,famous_female22.jpg,0
14,22,2,2,28,2,2,6,1,1,1,1205.57,4,386.09,famous_female06.jpg,0
14,22,2,2,29,1,1,4,1,2,2,1332.02,2,818.99,famous_male04.jpg,0
14,22,2,2,30,2,1,13,3,3,1,1274.26,3,324.47,famous_male13.jpg,0
14,22,2,2,31,1,2,13,2,2,1,1025.09,4,1573.28,famous_female13.jpg,0
14,22,2,2,32,1,2,24,1,2,2,2229.57,1,807.53,famous_female24.jpg,0
14,22,2,2,33,1,2,21,4,4,1,2223.81,3,353.74,famous_female21.jpg,0
14,22,2,2,34,2,2,5,4,3,2,1341.04,1,379.97,famous_female05.jpg,0
14,22,2,2,35,2,1,3,4,4,1,1173.92,4,267.79,famous_male03.jpg,0
14,22,2,2,36,1,2,20,4,4,1,2906.6,2,223.82,famous_female20.jpg,0
14,22,2,2,37,1,2,14,2,3,2,944.7,1,232.4,famous_female14.jpg,0
14,22,2,2,38,2,2,16,4,3,2,3456.6,3,262.8,famous_female16.jpg,0
14,22,2,2,39,1,2,3,2,2,1,1525.49,4,252.78,famous_female03.jpg,0
14,22,2,2,40,2,1,11,4,4,1,820.27,4,456.93,famous_male11.jpg,0
14,22,2,2,41,1,2,23,4,2,2,4343.99,2,433.06,famous_female23.jpg,0
14,22,2,2,42,2,1,24,1,1,1,1920.89,1,47.33,famous_male24.jpg,0
14,22,2,2,43,2,1,23,1,4,2,2799.22,1,96.62,famous_male23.jpg,0
14,22,2,2,44,2,1,9,2,2,1,966.41,4,884.71,famous_male09.jpg,0
14,22,2,2,45,2,2,10,1,3,2,2473.65,2,145.1,famous_female10.jpg,0
14,22,2,2,46,1,2,11,3,1,2,7196.73,1,62.25,famous_female11.jpg,0
14,22,2,2,47,2,2,17,2,2,1,1285.39,2,262.46,famous_female17.jpg,0
14,22,2,2,48,1,2,15,1,3,2,1149.19,1,131.95,famous_female15.jpg,0
15,25,2,1, 1,1,1,14,4,4,1,8523.61,4,1301.96,unknown_male14.jpg,0
15,25,2,1, 2,2,1,23,1,3,2,4441.42,3,3926.29,unknown_male23.jpg,0
15,25,2,1, 3,1,2,22,2,2,1,7179.99,4,694.22,unknown_female22.jpg,0
15,25,2,1, 4,1,1, 8,2,3,2,4987.55,3,3009.32,unknown_male08.jpg,0
15,25,2,1, 5,2,2,12,4,2,2,15997.51,1,646.53,unknown_female12.jpg,0
15,25,2,1, 6,1,2,19,3,4,2,22461.26,2,247.78,unknown_female19.jpg,0
15,25,2,1, 7,2,2,13,3,3,1,7743.25,2,425.70,unknown_female13.jpg,0
15,25,2,1, 8,2,1, 2,3,4,2,9706.14,3,2266.84,unknown_male02.jpg,0
15,25,2,1, 9,2,2, 3,2,2,1,4805.73,2,987.25,unknown_female03.jpg,0
15,25,2,1,10,1,2, 7,4,4,1,5043.93,4,503.70,unknown_female07.jpg,0
15,25,2,1,11,1,1,17,2,2,1,6236.66,2,78.79,unknown_male17.jpg,0
15,25,2,1,12,1,2,21,1,2,2,3093.28,2,746.80,unknown_female21.jpg,0
15,25,2,1,13,1,2,15,1,1,1,8461.30,3,449.70,unknown_female15.jpg,0
15,25,2,1,14,1,2,18,3,2,2,8664.79,2,92.80,unknown_female18.jpg,0
15,25,2,1,15,2,1,16,4,3,2,5971.26,1,327.87,unknown_male16.jpg,0
15,25,2,1,16,2,1,24,3,2,2,3227.88,1,27.79,unknown_male24.jpg,0
15,25,2,1,17,1,2, 2,2,1,2,3812.38,4,827.86,unknown_female02.jpg,0
15,25,2,1,18,2,2,11,4,4,1,3371.50,4,277.19,unknown_female11.jpg,0
15,25,2,1,19,1,2,17,4,4,1,7947.94,3,254.06,unknown_female17.jpg,0
15,25,2,1,20,1,1,18,2,2,1,2149.56,4,74.22,unknown_male18.jpg,0
15,25,2,1,21,2,2,24,2,3,2,4025.45,1,79.77,unknown_female24.jpg,0
15,25,2,1,22,2,1, 3,4,4,1,3766.28,4,519.81,unknown_male03.jpg,0
15,25,2,1,23,1,1,21,4,1,2,7316.10,2,128.75,unknown_male21.jpg,0
15,25,2,1,24,2,2,10,4,4,1,5805.16,4,64.70,unknown_female10.jpg,0
15,25,2,1,25,2,1, 4,2,2,1,15631.55,1,96.34,unknown_male04.jpg,0
15,25,2,1,26,2,2, 6,1,1,1,3014.14,4,159.21,unknown_female06.jpg,0
15,25,2,1,27,1,2,20,3,2,2,4178.85,2,314.90,unknown_female20.jpg,0
15,25,2,1,28,1,1,10,1,1,1,4039.63,2,205.27,unknown_male10.jpg,0
15,25,2,1,29,2,2, 5,3,3,1,2654.88,4,1006.56,unknown_female05.jpg,0
15,25,2,1,30,1,1,15,1,3,2,6838.61,2,47.50,unknown_male15.jpg,0
15,25,2,1,31,1,2, 4,4,1,2,5431.40,1,171.02,unknown_female04.jpg,0
15,25,2,1,32,2,2, 9,1,1,1,3718.03,4,1321.02,unknown_female09.jpg,0
15,25,2,1,33,2,1,22,1,1,1,3139.73,4,143.13,unknown_male22.jpg,0
15,25,2,1,34,2,1,13,4,4,1,4571.55,3,810.82,unknown_male13.jpg,0
15,25,2,1,35,1,1,12,4,4,1,2267.23,4,195.03,unknown_male12.jpg,0
15,25,2,1,36,1,1,11,1,2,2,4764.64,2,1516.22,unknown_male11.jpg,0
15,25,2,1,37,2,2,16,1,1,1,5134.57,2,1134.81,unknown_female16.jpg,0
15,25,2,1,38,2,2, 8,2,2,1,10209.26,1,164.92,unknown_female08.jpg,0
15,25,2,1,39,1,1, 6,3,1,2,2031.89,2,57.55,unknown_male06.jpg,0
15,25,2,1,40,1,1,20,3,3,1,3041.31,2,1577.01,unknown_male20.jpg,0
15,25,2,1,41,1,2, 1,1,1,1,4305.27,2,331.79,unknown_female01.jpg,0
15,25,2,1,42,2,1, 7,2,2,1,3167.71,1,145.75,unknown_male07.jpg,0
15,25,2,1,43,1,2,14,2,2,1,3413.39,1,277.69,unknown_female14.jpg,0
15,25,2,1,44,1,1,19,3,3,1,16956.51,1,141.77,unknown_male19.jpg,0
15,25,2,1,45,2,1, 1,2,2,1,3570.09,1,787.34,unknown_male01.jpg,0
15,25,2,1,46,2,1, 9,3,2,2,3428.45,1,43.98,unknown_male09.jpg,0
15,25,2,1,47,2,1, 5,1,1,1,6908.52,1,33.99,unknown_male05.jpg,0
15,25,2,1,48,2,2,23,3,1,2,2626.57,1,547.65,unknown_female23.jpg,0
16,25,2,2, 1,2,1,15,3,3,1,4195.32,4,1114.75,famous_male15.jpg,0
16,25,2,2, 2,1,2, 8,3,3,1,10853.89,1,918.29,famous_female08.jpg,0
16,25,2,2, 3,1,2,22,2,2,1,2249.85,3,3178.30,famous_female22.jpg,0
16,25,2,2, 4,1,1,21,4,3,2,2087.46,3,270.98,famous_male21.jpg,0
16,25,2,2, 5,2,2,20,3,3,1,7485.00,1,1546.65,famous_female20.jpg,0
16,25,2,2, 6,2,2,23,3,3,1,2459.60,4,947.70,famous_female23.jpg,0
16,25,2,2, 7,1,1,19,2,2,1,1933.84,4,451.62,famous_male19.jpg,0
16,25,2,2, 8,2,2,15,4,4,1,3418.71,4,794.30,famous_female15.jpg,0
16,25,2,2, 9,1,2, 9,2,2,1,2114.64,4,393.49,famous_female09.jpg,0
16,25,2,2,10,2,1,11,1,1,1,1650.59,4,300.34,famous_male11.jpg,0
16,25,2,2,11,2,1, 6,2,2,1,2073.70,3,753.84,famous_male06.jpg,0
16,25,2,2,12,1,1,20,1,1,1,1084.37,4,309.84,famous_male20.jpg,0
16,25,2,2,13,1,2,16,3,3,1,1818.44,4,813.13,famous_female16.jpg,0
16,25,2,2,14,2,2,18,4,4,1,1876.87,4,1453.42,famous_female18.jpg,0
16,25,2,2,15,1,1, 7,3,3,1,3458.59,1,168.72,famous_male07.jpg,0
16,25,2,2,16,1,2,14,4,4,1,5147.66,3,291.23,famous_female14.jpg,0
16,25,2,2,17,2,2, 7,3,3,1,1809.35,3,1268.68,famous_female07.jpg,0
16,25,2,2,18,1,2, 6,1,1,1,3825.54,4,480.29,famous_female06.jpg,0
16,25,2,2,19,2,2, 1,2,2,1,3214.01,4,1086.67,famous_female01.jpg,0
16,25,2,2,20,2,2,13,2,2,1,1419.17,3,1550.59,famous_female13.jpg,0
16,25,2,2,21,2,1,23,4,2,2,3199.56,1,576.87,famous_male23.jpg,0
16,25,2,2,22,1,1,17,4,4,1,4130.34,4,308.56,famous_male17.jpg,0
16,25,2,2,23,1,1, 9,2,2,1,1569.99,4,303.10,famous_male09.jpg,0
16,25,2,2,24,1,2,24,1,1,1,2220.55,3,662.38,famous_female24.jpg,0
16,25,2,2,25,2,1, 8,1,1,1,1108.35,4,157.11,famous_male08.jpg,0
16,25,2,2,26,2,2,21,1,1,1,1272.81,4,122.54,famous_female21.jpg,0
16,25,2,2,27,2,1,13,1,1,1,1239.63,4,226.75,famous_male13.jpg,0
16,25,2,2,28,1,1,18,1,1,1,1995.65,4,103.37,famous_male18.jpg,0
16,25,2,2,29,2,1, 5,3,3,1,1365.10,3,1698.65,famous_male05.jpg,0
16,25,2,2,30,1,1,12,3,3,1,7165.31,2,1136.22,famous_male12.jpg,0
16,25,2,2,31,2,1,24,4,3,2,10010.67,1,446.73,famous_male24.jpg,0
16,25,2,2,32,2,1,16,4,4,1,1557.84,4,451.67,famous_male16.jpg,0
16,25,2,2,33,1,1, 3,4,4,1,3370.79,2,1164.41,famous_male03.jpg,0
16,25,2,2,34,1,2, 5,4,4,1,1597.44,4,89.21,famous_female05.jpg,0
16,25,2,2,35,1,1,14,2,3,2,4135.69,2,825.26,famous_male14.jpg,0
16,25,2,2,36,2,2,11,2,2,1,1968.84,4,469.24,famous_female11.jpg,0
16,25,2,2,37,1,1,10,3,3,1,5739.60,2,498.01,famous_male10.jpg,0
16,25,2,2,38,1,2,19,4,4,1,2679.04,1,222.10,famous_female19.jpg,0
16,25,2,2,39,2,2,12,1,1,1,1638.92,4,209.23,famous_female12.jpg,0
16,25,2,2,40,2,1, 1,2,2,1,1874.10,3,226.73,famous_male01.jpg,0
16,25,2,2,41,1,2, 4,2,2,1,3435.61,3,3770.50,famous_female04.jpg,0
16,25,2,2,42,2,2,17,4,4,1,2030.42,4,104.04,famous_female17.jpg,0
16,25,2,2,43,1,1,22,1,1,1,2901.77,2,874.98,famous_male22.jpg,0
16,25,2,2,44,1,2,10,3,3,1,4648.56,3,629.13,famous_female10.jpg,0
16,25,2,2,45,2,1, 2,2,2,1,2620.47,2,3197.60,famous_male02.jpg,0
16,25,2,2,46,2,2, 2,1,1,1,1226.07,4,805.88,famous_female02.jpg,0
16,25,2,2,47,2,1, 4,3,2,2,3446.25,1,93.21,famous_male04.jpg,0
16,25,2,2,48,1,2, 3,1,1,1,1162.88,4,272.91,famous_female03.jpg,0
17,22,1,1, 1,2,1,24,2,2,1,1963.25,3,2247.64,unknown_male24.jpg,0
17,22,1,1, 2,1,1, 2,2,2,1,2747.89,4,1176.17,unknown_male02.jpg,0
17,22,1,1, 3,1,2,20,2,2,1,3129.19,3,373.30,unknown_female20.jpg,0
17,22,1,1, 4,2,2,12,3,2,2,3543.89,3,266.54,unknown_female12.jpg,0
17,22,1,1, 5,2,1,14,3,3,1,1385.32,4,366.17,unknown_male14.jpg,0
17,22,1,1, 6,2,2, 3,3,3,1,2272.73,3,1928.55,unknown_female03.jpg,0
17,22,1,1, 7,1,1, 4,4,4,1,4810.09,2,391.63,unknown_male04.jpg,0
17,22,1,1, 8,1,1, 1,4,4,1,1417.51,4,789.01,unknown_male01.jpg,0
17,22,1,1, 9,2,1,16,1,1,1,1550.05,4,323.94,unknown_male16.jpg,0
17,22,1,1,10,2,2,19,3,3,1,3296.67,3,717.77,unknown_female19.jpg,0
17,22,1,1,11,1,1,20,2,2,1,1121.63,4,241.72,unknown_male20.jpg,0
17,22,1,1,12,1,2,10,3,1,2,2185.89,3,341.17,unknown_female10.jpg,0
17,22,1,1,13,2,1,11,2,2,1,2449.12,4,2033.24,unknown_male11.jpg,0
17,22,1,1,14,2,2,23,2,3,2,1597.93,2,281.76,unknown_female23.jpg,0
17,22,1,1,15,1,2, 1,1,1,1,1343.74,4,302.73,unknown_female01.jpg,0
17,22,1,1,16,1,2, 7,4,4,1,1036.12,4,127.67,unknown_female07.jpg,0
17,22,1,1,17,2,1,21,3,3,1,2004.75,3,143.72,unknown_male21.jpg,0
17,22,1,1,18,1,1, 3,3,3,1,1908.07,4,315.24,unknown_male03.jpg,0
17,22,1,1,19,1,2,11,2,4,2,1519.94,2,8495.16,unknown_female11.jpg,0
17,22,1,1,20,1,1,13,1,2,2,4981.24,3,307.81,unknown_male13.jpg,0
17,22,1,1,21,2,2,15,1,1,1,2881.24,2,223.81,unknown_female15.jpg,0
17,22,1,1,22,1,2, 4,4,3,2,2176.70,3,140.68,unknown_female04.jpg,0
17,22,1,1,23,2,2,22,2,2,1,1089.08,4,122.77,unknown_female22.jpg,0
17,22,1,1,24,2,2, 6,4,4,1,1031.53,4,147.09,unknown_female06.jpg,0
17,22,1,1,25,2,2,13,4,3,2,1558.73,2,228.67,unknown_female13.jpg,0
17,22,1,1,26,1,2,18,4,4,1,4884.77,3,1263.58,unknown_female18.jpg,0
17,22,1,1,27,1,2,16,1,1,1,1532.33,3,306.92,unknown_female16.jpg,0
17,22,1,1,28,1,1,19,3,3,1,1872.29,2,416.87,unknown_male19.jpg,0
17,22,1,1,29,1,2, 9,3,3,1,1529.33,3,288.62,unknown_female09.jpg,0
17,22,1,1,30,1,2,21,2,2,1,1414.67,4,242.22,unknown_female21.jpg,0
17,22,1,1,31,2,1,18,3,3,1,3010.30,2,2179.44,unknown_male18.jpg,0
17,22,1,1,32,1,1, 5,3,4,2,2834.46,2,738.46,unknown_male05.jpg,0
17,22,1,1,33,1,2, 5,3,1,2,1053.68,3,216.50,unknown_female05.jpg,0
17,22,1,1,34,2,2,24,1,1,1,2881.42,3,240.00,unknown_female24.jpg,0
17,22,1,1,35,2,1,12,4,3,2,3912.15,3,363.46,unknown_male12.jpg,0
17,22,1,1,36,2,2, 2,1,3,2,3294.01,2,3.28,unknown_female02.jpg,0
17,22,1,1,37,1,1, 8,4,4,1,2733.18,4,577.37,unknown_male08.jpg,0
17,22,1,1,38,2,1,10,1,4,2,1963.54,2,48.71,unknown_male10.jpg,0
17,22,1,1,39,2,1, 9,4,4,1,2136.48,4,213.97,unknown_male09.jpg,0
17,22,1,1,40,1,1,17,1,2,2,1422.74,3,234.23,unknown_male17.jpg,0
17,22,1,1,41,1,2,17,1,1,1,1610.39,4,238.17,unknown_female17.jpg,0
17,22,1,1,42,2,2, 8,4,3,2,1710.38,2,829.92,unknown_female08.jpg,0
17,22,1,1,43,2,2,14,2,2,1,5980.90,2,33.59,unknown_female14.jpg,0
17,22,1,1,44,2,1,22,4,1,2,2410.05,3,172.27,unknown_male22.jpg,0
17,22,1,1,45,1,1, 6,1,1,1,1127.23,4,143.29,unknown_male06.jpg,0
17,22,1,1,46,2,1, 7,2,3,2,2955.69,3,238.79,unknown_male07.jpg,0
17,22,1,1,47,2,1,23,1,1,1,807.03,4,268.29,unknown_male23.jpg,0
17,22,1,1,48,1,1,15,2,2,1,1419.11,4,294.52,unknown_male15.jpg,0
18,27,2,2, 1,1,1,12,2,2,1,18390.75,1,2243.81,famous_male12.jpg,0
18,27,2,2, 2,2,1, 5,1,1,1,3200.09,3,2208.81,famous_male05.jpg,0
18,27,2,2, 3,2,1,20,1,3,2,22462.43,1,3088.92,famous_male20.jpg,0
18,27,2,2, 4,2,2,13,2,2,1,3929.59,4,820.12,famous_female13.jpg,0
18,27,2,2, 5,2,2, 1,2,2,1,1251.86,4,694.27,famous_female01.jpg,0
18,27,2,2, 6,1,1,13,2,4,2,14490.88,2,1666.88,famous_male13.jpg,0
18,27,2,2, 7,2,1,19,3,3,1,1190.98,4,660.24,famous_male19.jpg,0
18,27,2,2, 8,1,1,14,1,3,2,5498.85,2,1155.79,famous_male14.jpg,0
18,27,2,2, 9,1,1,23,1,1,1,2965.48,3,856.58,famous_male23.jpg,0
18,27,2,2,10,1,2, 7,4,4,1,2886.92,4,740.88,famous_female07.jpg,0
18,27,2,2,11,1,1, 1,4,4,1,1048.05,3,978.86,famous_male01.jpg,0
18,27,2,2,12,2,2,15,1,1,1,1748.25,4,473.74,famous_female15.jpg,0
18,27,2,2,13,2,2,16,4,4,1,7680.17,2,605.39,famous_female16.jpg,0
18,27,2,2,14,2,2, 8,3,3,1,1230.22,4,465.34,famous_female08.jpg,0
18,27,2,2,15,2,1, 7,3,3,1,1863.77,4,521.01,famous_male07.jpg,0
18,27,2,2,16,2,1, 9,4,4,1,1901.35,2,1420.47,famous_male09.jpg,0
18,27,2,2,17,2,2,14,1,1,1,1723.03,4,1409.88,famous_female14.jpg,0
18,27,2,2,18,2,2, 4,3,1,2,6785.14,3,820.13,famous_female04.jpg,0
18,27,2,2,19,1,2,20,3,2,2,3507.85,1,887.90,famous_female20.jpg,0
18,27,2,2,20,1,1,10,4,4,1,1308.81,4,525.21,famous_male10.jpg,0
18,27,2,2,21,1,2,10,4,4,1,6849.42,2,681.68,famous_female10.jpg,0
18,27,2,2,22,2,1,22,2,4,2,5991.00,1,698.88,famous_male22.jpg,0
18,27,2,2,23,1,2, 2,4,3,2,2935.49,1,643.29,famous_female02.jpg,0
18,27,2,2,24,2,1, 8,4,3,2,7114.66,1,791.72,famous_male08.jpg,0
18,27,2,2,25,2,2,11,4,4,1,1336.86,4,327.78,famous_female11.jpg,0
18,27,2,2,26,1,1,11,4,4,1,1667.79,3,84.73,famous_male11.jpg,0
18,27,2,2,27,2,1,15,2,2,1,6867.17,1,1026.81,famous_male15.jpg,0
18,27,2,2,28,2,2,17,3,3,1,2242.06,3,1731.26,famous_female17.jpg,0
18,27,2,2,29,1,2,23,2,2,1,3300.51,3,889.00,famous_female23.jpg,0
18,27,2,2,30,2,1,17,3,3,1,2565.84,3,297.06,famous_male17.jpg,0
18,27,2,2,31,2,2,21,1,1,1,1278.46,4,456.20,famous_female21.jpg,0
18,27,2,2,32,2,1, 6,1,1,1,1775.32,3,1324.03,famous_male06.jpg,0
18,27,2,2,33,1,2,24,1,3,2,7926.77,2,705.58,famous_female24.jpg,0
18,27,2,2,34,1,2,22,3,1,2,6766.18,1,737.88,famous_female22.jpg,0
18,27,2,2,35,2,1,16,2,2,1,5285.05,3,535.10,famous_male16.jpg,0
18,27,2,2,36,1,1,21,3,4,2,2794.66,1,252.74,famous_male21.jpg,0
18,27,2,2,37,1,2,19,2,2,1,3172.25,3,230.27,famous_female19.jpg,0
18,27,2,2,38,1,2, 5,2,1,2,3718.48,1,977.41,famous_female05.jpg,0
18,27,2,2,39,2,2, 3,4,4,1,2450.85,3,418.93,famous_female03.jpg,0
18,27,2,2,40,1,2,18,1,3,2,3651.43,1,377.22,famous_female18.jpg,0
18,27,2,2,41,1,2,12,3,4,2,3499.74,1,312.52,famous_female12.jpg,0
18,27,2,2,42,2,1,18,4,4,1,1469.24,3,470.57,famous_male18.jpg,0
18,27,2,2,43,1,1, 3,3,3,1,5156.92,3,83.79,famous_male03.jpg,0
18,27,2,2,44,2,2, 9,2,2,1,2402.28,3,220.46,famous_female09.jpg,0
18,27,2,2,45,1,1, 2,3,1,2,2165.30,1,201.41,famous_male02.jpg,0
18,27,2,2,46,1,2, 6,1,2,2,4162.93,2,1947.70,famous_female06.jpg,0
18,27,2,2,47,1,1,24,2,3,2,4252.55,1,825.18,famous_male24.jpg,0
18,27,2,2,48,1,1, 4,1,4,2,2240.82,2,1162.06,famous_male04.jpg,0
19,21,2,1, 1,1,2, 4,4,3,2,9093.41,1,1303.34,unknown_female04.jpg,0
19,21,2,1, 2,2,1,13,3,3,1,2666.68,4,681.73,unknown_male13.jpg,0
19,21,2,1, 3,1,2,22,3,3,1,3815.11,2,1438.49,unknown_female22.jpg,0
19,21,2,1, 4,2,1, 3,2,4,2,3444.39,3,1051.23,unknown_male03.jpg,0
19,21,2,1, 5,2,2,10,1,2,2,3409.16,1,521.48,unknown_female10.jpg,0
19,21,2,1, 6,1,1,19,1,1,1,3612.91,4,876.82,unknown_male19.jpg,0
19,21,2,1, 7,2,2, 9,1,2,2,2282.46,2,905.53,unknown_female09.jpg,0
19,21,2,1, 8,1,2,17,1,3,2,3029.79,1,678.07,unknown_female17.jpg,0
19,21,2,1, 9,2,1, 5,4,4,1,2651.34,3,875.08,unknown_male05.jpg,0
19,21,2,1,10,1,2,24,2,3,2,1928.66,2,975.25,unknown_female24.jpg,0
19,21,2,1,11,1,1,18,4,4,1,3368.59,2,538.24,unknown_male18.jpg,0
19,21,2,1,12,2,2,14,4,4,1,2349.87,4,578.13,unknown_female14.jpg,0
19,21,2,1,13,1,1,23,1,2,2,2588.30,3,742.84,unknown_male23.jpg,0
19,21,2,1,14,1,2,13,3,4,2,2290.07,2,513.17,unknown_female13.jpg,0
19,21,2,1,15,1,2,15,1,1,1,2837.46,3,557.45,unknown_female15.jpg,0
19,21,2,1,16,1,2, 6,2,1,2,7584.35,3,137.91,unknown_female06.jpg,0
19,21,2,1,17,1,2, 3,4,3,2,4526.18,3,527.59,unknown_female03.jpg,0
19,21,2,1,18,2,2,20,3,4,2,2043.91,3,589.46,unknown_female20.jpg,0
19,21,2,1,19,1,2, 7,4,2,2,4414.99,2,269.27,unknown_female07.jpg,0
19,21,2,1,20,2,1,17,4,3,2,2956.09,2,199.17,unknown_male17.jpg,0
19,21,2,1,21,1,2,16,3,2,2,2096.78,2,104.30,unknown_female16.jpg,0
19,21,2,1,22,2,1, 4,4,3,2,2182.03,1,209.30,unknown_male04.jpg,0
19,21,2,1,23,1,1, 6,2,4,2,7290.91,1,184.23,unknown_male06.jpg,0
19,21,2,1,24,1,2,12,2,2,1,2794.55,3,356.64,unknown_female12.jpg,0
19,21,2,1,25,1,1,22,2,3,2,3703.95,2,291.57,unknown_male22.jpg,0
19,21,2,1,26,1,1,11,2,1,2,5281.65,3,371.63,unknown_male11.jpg,0
19,21,2,1,27,1,2,23,1,2,2,2366.22,3,321.79,unknown_female23.jpg,0
19,21,2,1,28,1,1,16,1,1,1,4086.44,4,1042.05,unknown_male16.jpg,0
19,21,2,1,29,1,1, 8,3,3,1,5256.70,3,155.31,unknown_male08.jpg,0
19,21,2,1,30,2,2,18,2,4,2,2455.03,1,631.09,unknown_female18.jpg,0
19,21,2,1,31,2,2, 1,2,2,1,4398.49,1,221.53,unknown_female01.jpg,0
19,21,2,1,32,1,1,21,4,3,2,3366.40,3,120.03,unknown_male21.jpg,0
19,21,2,1,33,2,2,21,4,2,2,3437.13,1,739.96,unknown_female21.jpg,0
19,21,2,1,34,1,1,15,4,1,2,2519.20,3,132.46,unknown_male15.jpg,0
19,21,2,1,35,2,1, 9,1,1,1,3272.87,4,118.68,unknown_male09.jpg,0
19,21,2,1,36,2,2, 5,2,3,2,5867.78,2,173.19,unknown_female05.jpg,0
19,21,2,1,37,2,1,12,1,4,2,2816.23,1,112.93,unknown_male12.jpg,0
19,21,2,1,38,2,1, 2,1,3,2,2101.96,1,100.86,unknown_male02.jpg,0
19,21,2,1,39,2,2,19,3,4,2,3786.59,4,986.72,unknown_female19.jpg,0
19,21,2,1,40,2,2, 2,1,2,2,2475.47,1,658.84,unknown_female02.jpg,0
19,21,2,1,41,2,2, 8,3,2,2,4945.53,2,409.60,unknown_female08.jpg,0
19,21,2,1,42,2,1, 7,3,4,2,2234.71,3,491.85,unknown_male07.jpg,0
19,21,2,1,43,2,1,10,2,3,2,4841.58,2,2269.70,unknown_male10.jpg,0
19,21,2,1,44,2,1,24,3,4,2,4696.60,4,579.03,unknown_male24.jpg,0
19,21,2,1,45,1,1, 1,3,1,2,6524.48,4,970.00,unknown_male01.jpg,0
19,21,2,1,46,1,1,20,3,3,1,2971.35,4,501.82,unknown_male20.jpg,0
19,21,2,1,47,2,2,11,4,4,1,2578.81,1,1014.02,unknown_female11.jpg,0
19,21,2,1,48,2,1,14,2,3,2,2901.39,2,610.56,unknown_male14.jpg,0
20,24,2,2, 1,1,1, 5,2,2,1,3307.74,2,80.29,famous_male05.jpg,0
20,24,2,2, 2,1,1,10,4,2,2,2678.73,3,61.71,famous_male10.jpg,0
20,24,2,2, 3,1,2,24,1,4,2,4756.84,4,4.61,famous_female24.jpg,0
20,24,2,2, 4,2,1, 3,4,2,2,11670.49,3,820.67,famous_male03.jpg,0
20,24,2,2, 5,1,2,14,3,1,2,8244.36,2,473.84,famous_female14.jpg,0
20,24,2,2, 6,2,1,22,3,3,1,4343.56,3,712.62,famous_male22.jpg,0
20,24,2,2, 7,1,2, 9,4,2,2,18516.56,2,700.05,famous_female09.jpg,0
20,24,2,2, 8,1,2,16,4,1,2,5392.69,2,1229.69,famous_female16.jpg,0
20,24,2,2, 9,2,1,17,1,1,1,2996.59,2,174.36,famous_male17.jpg,0
20,24,2,2,10,2,2,22,4,4,1,2649.34,4,321.05,famous_female22.jpg,0
20,24,2,2,11,2,2, 8,3,3,1,1637.79,4,120.09,famous_female08.jpg,0
20,24,2,2,12,2,1, 1,3,3,1,1309.18,4,101.56,famous_male01.jpg,0
20,24,2,2,13,1,1, 2,1,2,2,6755.32,2,175.67,famous_male02.jpg,0
20,24,2,2,14,1,1,12,2,3,2,9274.67,2,925.51,famous_male12.jpg,0
20,24,2,2,15,1,2, 2,3,3,1,3425.08,4,16.67,famous_female02.jpg,0
20,24,2,2,16,2,2,15,3,4,2,2209.90,3,820.51,famous_female15.jpg,0
20,24,2,2,17,1,1, 9,2,2,1,3468.18,2,257.61,famous_male09.jpg,0
20,24,2,2,18,2,2,10,2,1,2,3041.11,2,152.72,famous_female10.jpg,0
20,24,2,2,19,2,2,23,1,1,1,2956.42,2,223.60,famous_female23.jpg,0
20,24,2,2,20,2,1,14,1,2,2,4224.45,2,294.40,famous_male14.jpg,0
20,24,2,2,21,1,2, 3,1,2,2,8811.80,2,129.58,famous_female03.jpg,0
20,24,2,2,22,2,2,17,4,4,1,1485.90,4,1150.60,famous_female17.jpg,0
20,24,2,2,23,1,2, 1,2,1,2,4456.28,2,188.46,famous_female01.jpg,0
20,24,2,2,24,2,2, 6,2,1,2,3382.78,2,216.39,famous_female06.jpg,0
20,24,2,2,25,2,2,19,3,3,1,2937.30,2,381.11,famous_female19.jpg,0
20,24,2,2,26,2,1,21,2,2,1,3394.81,2,3363.79,famous_male21.jpg,0
20,24,2,2,27,1,1, 4,3,3,1,4593.20,2,335.79,famous_male04.jpg,0
20,24,2,2,28,1,2,18,1,2,2,4403.81,2,186.13,famous_female18.jpg,0
20,24,2,2,29,1,1,11,1,2,2,10484.39,1,84.17,famous_male11.jpg,0
20,24,2,2,30,2,2,20,4,3,2,1578.67,3,279.78,famous_female20.jpg,0
20,24,2,2,31,1,1, 6,4,3,2,1477.89,3,3375.21,famous_male06.jpg,0
20,24,2,2,32,2,1, 7,2,2,1,5147.98,2,491.59,famous_male07.jpg,0
20,24,2,2,33,2,2, 5,2,2,1,2177.18,4,141.17,famous_female05.jpg,0
20,24,2,2,34,1,2,13,3,1,2,2745.56,3,541.76,famous_female13.jpg,0
20,24,2,2,35,1,1,20,4,2,2,3529.40,2,12.79,famous_male20.jpg,0
20,24,2,2,36,2,1,19,3,3,1,3550.02,2,384.62,famous_male19.jpg,0
20,24,2,2,37,1,1, 8,1,2,2,6626.57,3,123.84,famous_male08.jpg,0
20,24,2,2,38,1,1,15,3,4,2,2344.88,4,573.91,famous_male15.jpg,0
20,24,2,2,39,2,1,18,4,2,2,7960.16,2,257.49,famous_male18.jpg,0
20,24,2,2,40,2,2,12,1,1,1,1921.00,3,1943.44,famous_female12.jpg,0
20,24,2,2,41,1,2, 4,4,1,2,2312.34,3,302.79,famous_female04.jpg,0
20,24,2,2,42,2,1,24,4,3,2,6132.09,2,1650.44,famous_male24.jpg,0
20,24,2,2,43,2,1,23,2,2,1,14551.17,2,1037.04,famous_male23.jpg,0
20,24,2,2,44,2,1,13,1,2,2,1451.63,3,173.72,famous_male13.jpg,0
20,24,2,2,45,1,1,16,3,4,2,3336.66,4,819.73,famous_male16.jpg,0
20,24,2,2,46,2,2,21,1,1,1,1187.40,4,264.68,famous_female21.jpg,0
20,24,2,2,47,1,2,11,2,3,2,1951.43,3,644.55,famous_female11.jpg,0
20,24,2,2,48,1,2, 7,2,3,2,26931.91,2,315.07,famous_female07.jpg,0
21,22,2,1, 1,1,2, 5,4,4,1,3545.85,3,6692.51,unknown_female05.jpg,0
21,22,2,1, 2,1,2, 8,1,1,1,2318.08,4,1147.81,unknown_female08.jpg,0
21,22,2,1, 3,1,2, 6,2,2,1,2357.57,3,1457.83,unknown_female06.jpg,0
21,22,2,1, 4,2,1,21,2,2,1,3487.03,2,7779.71,unknown_male21.jpg,0
21,22,2,1, 5,2,1, 3,1,3,2,7087.92,2,2853.63,unknown_male03.jpg,0
21,22,2,1, 6,1,1, 2,2,2,1,4552.07,2,6624.05,unknown_male02.jpg,0
21,22,2,1, 7,2,1,17,3,3,1,46084.48,1,673.65,unknown_male17.jpg,0
21,22,2,1, 8,2,2,12,1,2,2,18607.62,1,395.68,unknown_female12.jpg,0
21,22,2,1, 9,1,2,15,1,1,1,7276.89,1,906.90,unknown_female15.jpg,0
21,22,2,1,10,1,1, 1,4,4,1,6567.14,2,1683.22,unknown_male01.jpg,0
21,22,2,1,11,1,1,11,1,1,1,2190.58,3,1049.86,unknown_male11.jpg,0
21,22,2,1,12,2,1, 9,1,3,2,15863.80,2,406.47,unknown_male09.jpg,0
21,22,2,1,13,1,1,15,1,1,1,1621.13,4,1480.23,unknown_male15.jpg,0
21,22,2,1,14,2,2,24,3,3,1,69556.00,2,578.84,unknown_female24.jpg,0
21,22,2,1,15,1,1, 4,3,3,1,1756.37,3,553.82,unknown_male04.jpg,0
21,22,2,1,16,1,1,16,1,1,1,1524.73,3,675.97,unknown_male16.jpg,0
21,22,2,1,17,1,1, 6,3,3,1,2018.01,3,1012.24,unknown_male06.jpg,0
21,22,2,1,18,2,2, 2,3,3,1,9460.29,1,1383.41,unknown_female02.jpg,0
21,22,2,1,19,2,1,20,1,1,1,1823.38,3,1834.02,unknown_male20.jpg,0
21,22,2,1,20,1,2, 4,2,2,1,1567.11,4,692.31,unknown_female04.jpg,0
21,22,2,1,21,2,1,23,4,4,1,1489.58,4,730.31,unknown_male23.jpg,0
21,22,2,1,22,1,2,18,3,2,2,6413.40,2,471.80,unknown_female18.jpg,0
21,22,2,1,23,2,1,22,2,3,2,7038.20,1,702.74,unknown_male22.jpg,0
21,22,2,1,24,1,2,23,4,4,1,6283.30,2,491.40,unknown_female23.jpg,0
21,22,2,1,25,1,2,14,1,1,1,2137.06,4,382.45,unknown_female14.jpg,0
21,22,2,1,26,2,2,20,1,1,1,2720.30,2,925.21,unknown_female20.jpg,0
21,22,2,1,27,2,2, 3,4,3,2,22040.78,1,1148.71,unknown_female03.jpg,0
21,22,2,1,28,2,2,10,1,1,1,3646.41,2,1420.90,unknown_female10.jpg,0
21,22,2,1,29,2,1,18,3,3,1,45603.48,2,444.93,unknown_male18.jpg,0
21,22,2,1,30,2,1,12,2,2,1,9404.03,1,473.26,unknown_male12.jpg,0
21,22,2,1,31,1,2,22,3,1,2,2399.64,3,3313.85,unknown_female22.jpg,0
21,22,2,1,32,2,2, 7,3,4,2,5905.41,2,456.85,unknown_female07.jpg,0
21,22,2,1,33,1,1,10,3,3,1,10351.90,2,877.25,unknown_male10.jpg,0
21,22,2,1,34,1,2,16,3,3,1,1362.89,3,2153.12,unknown_female16.jpg,0
21,22,2,1,35,1,1, 8,4,1,2,15400.92,1,227.14,unknown_male08.jpg,0
21,22,2,1,36,2,2, 9,2,4,2,19939.98,1,488.10,unknown_female09.jpg,0
21,22,2,1,37,2,2, 1,2,4,2,11805.79,1,198.37,unknown_female01.jpg,0
21,22,2,1,38,2,2,19,4,4,1,1391.98,4,348.86,unknown_female19.jpg,0
21,22,2,1,39,2,1,14,4,4,1,2104.08,3,1254.86,unknown_male14.jpg,0
21,22,2,1,40,1,1,24,2,3,2,3860.44,3,409.83,unknown_male24.jpg,0
21,22,2,1,41,1,1,19,4,1,2,9418.93,2,503.51,unknown_male19.jpg,0
21,22,2,1,42,1,1, 5,2,3,2,916.47,4,492.94,unknown_male05.jpg,0
21,22,2,1,43,2,2,13,2,2,1,3282.56,2,632.50,unknown_female13.jpg,0
21,22,2,1,44,2,1, 7,4,4,1,13839.90,1,91.15,unknown_male07.jpg,0
21,22,2,1,45,2,1,13,3,1,2,34617.66,2,583.22,unknown_male13.jpg,0
21,22,2,1,46,1,2,21,4,4,1,26184.66,1,519.23,unknown_female21.jpg,0
21,22,2,1,47,1,2,11,2,2,1,3147.56,3,502.96,unknown_female11.jpg,0
21,22,2,1,48,2,2,17,4,4,1,2099.98,4,842.75,unknown_female17.jpg,0
22,24,1,2, 1,1,1, 1,1,1,1,10290.89,2,3339.06,famous_male01.jpg,0
22,24,1,2, 2,2,2,19,4,4,1,2489.28,4,1031.89,famous_female19.jpg,0
22,24,1,2, 3,2,2,23,3,3,1,3854.50,3,1643.90,famous_female23.jpg,0
22,24,1,2, 4,1,2,10,3,2,2,3881.36,1,1470.01,famous_female10.jpg,0
22,24,1,2, 5,2,2, 5,3,3,1,3506.43,1,566.51,famous_female05.jpg,0
22,24,1,2, 6,2,2,24,1,1,1,2840.75,1,96.74,famous_female24.jpg,0
22,24,1,2, 7,2,1, 7,3,1,2,8998.51,1,676.58,famous_male07.jpg,0
22,24,1,2, 8,2,1,11,1,1,1,10490.57,1,202.41,famous_male11.jpg,0
22,24,1,2, 9,2,1, 6,4,4,1,1387.90,4,1496.78,famous_male06.jpg,0
22,24,1,2,10,1,2,17,1,3,2,1204.49,4,1177.06,famous_female17.jpg,0
22,24,1,2,11,2,1,21,4,4,1,1098.12,4,538.79,famous_male21.jpg,0
22,24,1,2,12,2,1,10,2,2,1,2958.42,2,737.54,famous_male10.jpg,0
22,24,1,2,13,2,1,16,2,3,2,1788.79,2,296.81,famous_male16.jpg,0
22,24,1,2,14,2,2,11,4,4,1,4798.16,4,268.44,famous_female11.jpg,0
22,24,1,2,15,2,1, 4,3,3,1,1563.22,3,873.06,famous_male04.jpg,0
22,24,1,2,16,1,1,19,2,2,1,3542.64,2,177.33,famous_male19.jpg,0
22,24,1,2,17,1,2,12,2,3,2,5643.57,2,190.18,famous_female12.jpg,0
22,24,1,2,18,2,2,18,2,2,1,3304.51,2,812.92,famous_female18.jpg,0
22,24,1,2,19,1,1,13,1,3,2,8404.57,2,331.80,famous_male13.jpg,0
22,24,1,2,20,2,2,14,4,3,2,2247.75,1,481.01,famous_female14.jpg,0
22,24,1,2,21,2,1, 3,4,1,2,2406.64,1,584.87,famous_male03.jpg,0
22,24,1,2,22,1,1,12,2,2,1,3378.34,1,220.03,famous_male12.jpg,0
22,24,1,2,23,1,1, 2,3,3,1,2156.93,2,265.59,famous_male02.jpg,0
22,24,1,2,24,1,1,20,3,3,1,3960.35,2,281.56,famous_male20.jpg,0
22,24,1,2,25,1,1, 9,3,2,2,20495.62,2,284.65,famous_male09.jpg,0
22,24,1,2,26,1,2, 6,4,3,2,1850.74,1,291.98,famous_female06.jpg,0
22,24,1,2,27,2,2,21,1,1,1,1650.10,4,827.76,famous_female21.jpg,0
22,24,1,2,28,1,2, 3,3,3,1,12971.47,2,1347.08,famous_female03.jpg,0
22,24,1,2,29,1,1,23,1,1,1,2044.38,2,278.00,famous_male23.jpg,0
22,24,1,2,30,1,1, 8,4,2,2,5964.04,2,673.43,famous_male08.jpg,0
22,24,1,2,31,1,2,22,2,1,2,1567.38,1,556.52,famous_female22.jpg,0
22,24,1,2,32,1,2,16,2,3,2,1047.44,3,498.24,famous_female16.jpg,0
22,24,1,2,33,1,2, 9,4,3,2,1551.20,2,229.09,famous_female09.jpg,0
22,24,1,2,34,1,1,18,4,4,1,1253.24,4,303.71,famous_male18.jpg,0
22,24,1,2,35,1,2, 8,4,2,2,2045.12,2,390.68,famous_female08.jpg,0
22,24,1,2,36,2,2,15,3,3,1,1120.61,3,368.62,famous_female15.jpg,0
22,24,1,2,37,1,2, 2,3,2,2,3155.16,1,365.93,famous_female02.jpg,0
22,24,1,2,38,2,2, 4,2,1,2,1216.50,1,300.32,famous_female04.jpg,0
22,24,1,2,39,2,1,15,3,2,2,7225.73,2,265.88,famous_male15.jpg,0
22,24,1,2,40,2,1, 5,1,3,2,1440.64,2,539.41,famous_male05.jpg,0
22,24,1,2,41,2,2, 1,2,1,2,1863.03,1,280.32,famous_female01.jpg,0
22,24,1,2,42,2,1,24,1,3,2,1478.36,1,295.71,famous_male24.jpg,0
22,24,1,2,43,2,2,13,1,1,1,3685.07,4,241.58,famous_female13.jpg,0
22,24,1,2,44,1,1,14,2,2,1,1609.71,2,757.44,famous_male14.jpg,0
22,24,1,2,45,1,1,22,4,3,2,1591.94,2,340.43,famous_male22.jpg,0
22,24,1,2,46,1,2, 7,1,1,1,4128.32,2,722.53,famous_female07.jpg,0
22,24,1,2,47,1,2,20,1,3,2,4862.43,1,945.87,famous_female20.jpg,0
22,24,1,2,48,2,1,17,2,1,2,2131.95,1,449.37,famous_male17.jpg,0
23,25,2,1, 1,2,2,14,2,1,2,3806.91,2,2710.40,unknown_female14.jpg,0
23,25,2,1, 2,1,1,21,1,1,1,1583.10,3,1259.53,unknown_male21.jpg,0
23,25,2,1, 3,1,2,18,1,1,1,1673.05,4,561.98,unknown_female18.jpg,0
23,25,2,1, 4,1,1, 4,4,4,1,2052.22,4,733.06,unknown_male04.jpg,0
23,25,2,1, 5,2,1,19,1,1,1,2600.29,4,730.08,unknown_male19.jpg,0
23,25,2,1, 6,1,1,11,3,3,1,1453.31,4,711.34,unknown_male11.jpg,0
23,25,2,1, 7,1,2, 6,3,3,1,1803.91,3,887.31,unknown_female06.jpg,0
23,25,2,1, 8,2,2,22,1,1,1,1284.25,4,389.26,unknown_female22.jpg,0
23,25,2,1, 9,2,2,16,2,2,1,2783.18,2,953.29,unknown_female16.jpg,0
23,25,2,1,10,2,2,17,4,4,1,1019.41,4,1015.62,unknown_female17.jpg,0
23,25,2,1,11,1,2,11,1,1,1,990.20,4,307.87,unknown_female11.jpg,0
23,25,2,1,12,1,1, 3,1,1,1,897.29,4,274.47,unknown_male03.jpg,0
23,25,2,1,13,2,2,23,4,4,1,913.17,4,313.61,unknown_female23.jpg,0
23,25,2,1,14,2,2, 1,1,1,1,1486.30,4,342.93,unknown_female01.jpg,0
23,25,2,1,15,1,1, 7,2,2,1,1458.93,4,941.00,unknown_male07.jpg,0
23,25,2,1,16,1,1,15,3,3,1,2879.73,2,310.39,unknown_male15.jpg,0
23,25,2,1,17,1,2, 5,2,2,1,1139.78,3,563.12,unknown_female05.jpg,0
23,25,2,1,18,1,2,12,3,3,1,1677.34,3,1758.30,unknown_female12.jpg,0
23,25,2,1,19,2,1, 5,4,2,2,9678.83,2,280.23,unknown_male05.jpg,0
23,25,2,1,20,2,1,13,3,3,1,5550.27,1,301.03,unknown_male13.jpg,0
23,25,2,1,21,2,2,19,2,2,1,1410.42,4,726.57,unknown_female19.jpg,0
23,25,2,1,22,1,1,24,4,2,2,4610.47,2,1040.38,unknown_male24.jpg,0
23,25,2,1,23,2,2, 8,3,1,2,16599.03,1,462.92,unknown_female08.jpg,0
23,25,2,1,24,1,1,17,1,2,2,11309.35,1,274.92,unknown_male17.jpg,0
23,25,2,1,25,1,2, 9,4,2,2,5385.61,1,255.39,unknown_female09.jpg,0
23,25,2,1,26,2,2,13,3,1,2,2478.87,2,334.35,unknown_female13.jpg,0
23,25,2,1,27,2,1,14,2,2,1,1298.36,4,674.68,unknown_male14.jpg,0
23,25,2,1,28,2,1, 1,4,2,2,6280.57,1,144.60,unknown_male01.jpg,0
23,25,2,1,29,1,2, 3,2,2,1,9060.31,1,279.51,unknown_female03.jpg,0
23,25,2,1,30,1,1, 2,2,2,1,1453.63,4,255.64,unknown_male02.jpg,0
23,25,2,1,31,2,1,12,3,3,1,6703.16,1,381.63,unknown_male12.jpg,0
23,25,2,1,32,1,2, 7,4,1,2,5615.58,2,771.54,unknown_female07.jpg,0
23,25,2,1,33,2,1,16,2,3,2,3485.30,1,450.05,unknown_male16.jpg,0
23,25,2,1,34,2,2,21,4,4,1,1129.19,4,113.19,unknown_female21.jpg,0
23,25,2,1,35,1,2, 4,4,4,1,7454.28,2,293.40,unknown_female04.jpg,0
23,25,2,1,36,1,1,10,2,2,1,4923.42,2,548.08,unknown_male10.jpg,0
23,25,2,1,37,2,1, 6,3,3,1,1622.94,4,290.01,unknown_male06.jpg,0
23,25,2,1,38,1,1,18,3,3,1,1560.09,3,565.91,unknown_male18.jpg,0
23,25,2,1,39,2,2,15,3,3,1,2144.13,4,293.58,unknown_female15.jpg,0
23,25,2,1,40,1,1,20,4,3,2,9019.63,2,56.91,unknown_male20.jpg,0
23,25,2,1,41,2,1, 8,1,3,2,2168.80,3,92.78,unknown_male08.jpg,0
23,25,2,1,42,1,2, 2,3,4,2,6723.23,3,1392.35,unknown_female02.jpg,0
23,25,2,1,43,2,2,20,1,1,1,3280.34,2,334.15,unknown_female20.jpg,0
23,25,2,1,44,2,1,23,4,4,1,962.14,4,664.45,unknown_male23.jpg,0
23,25,2,1,45,1,2,24,1,1,1,2662.49,1,334.16,unknown_female24.jpg,0
23,25,2,1,46,1,2,10,2,2,1,1562.12,2,880.01,unknown_female10.jpg,0
23,25,2,1,47,2,1, 9,1,2,2,5084.97,1,135.26,unknown_male09.jpg,0
23,25,2,1,48,2,1,22,2,2,1,3875.66,1,1496.30,unknown_male22.jpg,0
25,21,1,1, 1,2,2, 1,3,1,2,4223.75,1,1293.78,unknown_female01.jpg,0
25,21,1,1, 2,1,2, 6,1,1,1,1217.94,4,805.81,unknown_female06.jpg,0
25,21,1,1, 3,1,1,21,4,4,1,2646.19,4,182.65,unknown_male21.jpg,0
25,21,1,1, 4,1,2,19,1,1,1,6120.88,4,463.85,unknown_female19.jpg,0
25,21,1,1, 5,1,2,13,3,3,1,1286.19,4,279.27,unknown_female13.jpg,0
25,21,1,1, 6,1,1,19,1,2,2,1909.41,1,340.53,unknown_male19.jpg,0
25,21,1,1, 7,1,1,17,4,2,2,2568.53,1,75.73,unknown_male17.jpg,0
25,21,1,1, 8,2,2,18,3,3,1,1370.89,4,592.44,unknown_female18.jpg,0
25,21,1,1, 9,2,1,18,4,2,2,1473.97,1,523.29,unknown_male18.jpg,0
25,21,1,1,10,2,2,15,1,2,2,5535.61,1,119.04,unknown_female15.jpg,0
25,21,1,1,11,2,1,11,2,2,1,1164.14,1,234.05,unknown_male11.jpg,0
25,21,1,1,12,1,1,20,3,3,1,6914.23,2,5663.66,unknown_male20.jpg,0
25,21,1,1,13,2,1, 1,4,1,2,7588.64,1,198.08,unknown_male01.jpg,0
25,21,1,1,14,2,1,23,3,1,2,3839.68,1,509.74,unknown_male23.jpg,0
25,21,1,1,15,1,1,14,2,2,1,922.76,4,283.14,unknown_male14.jpg,0
25,21,1,1,16,2,2, 2,3,2,2,4025.25,1,639.61,unknown_female02.jpg,0
25,21,1,1,17,1,2, 8,1,3,2,1271.01,4,248.78,unknown_female08.jpg,0
25,21,1,1,18,2,1, 7,1,1,1,4680.26,1,75.35,unknown_male07.jpg,0
25,21,1,1,19,1,1,16,2,2,1,2706.55,4,168.14,unknown_male16.jpg,0
25,21,1,1,20,2,2,11,4,4,1,995.07,4,104.11,unknown_female11.jpg,0
25,21,1,1,21,2,2, 9,2,1,2,5557.77,1,403.87,unknown_female09.jpg,0
25,21,1,1,22,2,1,15,3,1,2,3237.04,1,164.30,unknown_male15.jpg,0
25,21,1,1,23,2,2, 5,1,1,1,3647.24,1,117.74,unknown_female05.jpg,0
25,21,1,1,24,2,1, 9,2,2,1,1994.86,2,446.49,unknown_male09.jpg,0
25,21,1,1,25,1,1,24,4,2,2,1941.63,4,307.36,unknown_male24.jpg,0
25,21,1,1,26,2,2,23,2,2,1,2896.77,2,814.66,unknown_female23.jpg,0
25,21,1,1,27,1,2,16,3,3,1,1030.38,4,297.90,unknown_female16.jpg,0
25,21,1,1,28,1,1, 5,1,3,2,1031.32,4,210.85,unknown_male05.jpg,0
25,21,1,1,29,1,1,12,2,2,1,2075.69,4,171.91,unknown_male12.jpg,0
25,21,1,1,30,2,1,22,3,1,2,3534.89,1,209.60,unknown_male22.jpg,0
25,21,1,1,31,1,2,21,2,2,1,2259.06,4,339.59,unknown_female21.jpg,0
25,21,1,1,32,2,1, 4,1,1,1,1975.62,1,83.95,unknown_male04.jpg,0
25,21,1,1,33,2,2,22,4,2,2,14818.48,2,301.18,unknown_female22.jpg,0
25,21,1,1,34,2,2, 3,4,1,2,2130.57,1,95.91,unknown_female03.jpg,0
25,21,1,1,35,1,2,10,4,3,2,1621.72,4,112.83,unknown_female10.jpg,0
25,21,1,1,36,2,1, 3,4,4,1,2141.79,4,91.22,unknown_male03.jpg,0
25,21,1,1,37,1,2,20,4,4,1,985.71,4,55.35,unknown_female20.jpg,0
25,21,1,1,38,2,1,10,1,1,1,3983.21,1,87.66,unknown_male10.jpg,0
25,21,1,1,39,2,2,24,1,1,1,1486.21,1,134.80,unknown_female24.jpg,0
25,21,1,1,40,1,2, 4,2,3,2,1979.19,4,1679.54,unknown_female04.jpg,0
25,21,1,1,41,2,2,17,2,3,2,7035.62,2,196.13,unknown_female17.jpg,0
25,21,1,1,42,1,2, 7,3,3,1,1597.73,4,137.47,unknown_female07.jpg,0
25,21,1,1,43,1,1, 2,3,3,1,1501.81,4,53.88,unknown_male02.jpg,0
25,21,1,1,44,1,1, 8,1,2,2,5149.65,2,237.26,unknown_male08.jpg,0
25,21,1,1,45,1,2,12,2,2,1,4349.38,4,334.48,unknown_female12.jpg,0
25,21,1,1,46,1,2,14,4,1,2,5418.50,4,302.81,unknown_female14.jpg,0
25,21,1,1,47,1,1, 6,3,1,2,2164.22,4,128.19,unknown_male06.jpg,0
25,21,1,1,48,2,1,13,2,1,2,1532.58,1,491.11,unknown_male13.jpg,0
26,24,2,2, 1,2,1, 7,1,2,2,2478.72,2,1862.09,famous_male07.jpg,0
26,24,2,2, 2,2,2,11,4,4,1,1801.72,4,973.11,famous_female11.jpg,0
26,24,2,2, 3,1,1,11,2,2,1,3182.60,2,615.98,famous_male11.jpg,0
26,24,2,2, 4,1,1,20,1,1,1,1144.00,4,1199.40,famous_male20.jpg,0
26,24,2,2, 5,1,1,14,3,2,2,3118.96,1,643.08,famous_male14.jpg,0
26,24,2,2, 6,2,1,22,3,3,1,1673.80,4,1058.73,famous_male22.jpg,0
26,24,2,2, 7,2,2,16,1,1,1,1976.71,4,965.07,famous_female16.jpg,0
26,24,2,2, 8,2,1,16,3,3,1,1742.48,4,1140.65,famous_male16.jpg,0
26,24,2,2, 9,2,1,23,3,3,1,3479.09,1,708.58,famous_male23.jpg,0
26,24,2,2,10,1,2, 8,2,2,1,4641.07,2,477.58,famous_female08.jpg,0
26,24,2,2,11,2,1,19,1,1,1,1172.00,4,1681.98,famous_male19.jpg,0
26,24,2,2,12,1,2,23,3,3,1,3653.32,1,427.06,famous_female23.jpg,0
26,24,2,2,13,2,1, 2,2,3,2,1539.52,1,626.11,famous_male02.jpg,0
26,24,2,2,14,2,1, 1,4,4,1,2482.23,3,992.99,famous_male01.jpg,0
26,24,2,2,15,2,2,15,4,3,2,4849.66,1,565.76,famous_female15.jpg,0
26,24,2,2,16,1,1,21,1,3,2,4391.98,2,1446.94,famous_male21.jpg,0
26,24,2,2,17,1,1, 6,3,4,2,5220.11,1,976.83,famous_male06.jpg,0
26,24,2,2,18,1,2,20,1,1,1,5306.27,1,906.80,famous_female20.jpg,0
26,24,2,2,19,1,2, 4,4,3,2,3703.03,1,706.74,famous_female04.jpg,0
26,24,2,2,20,2,2, 6,3,3,1,1975.30,3,1859.64,famous_female06.jpg,0
26,24,2,2,21,2,2,12,4,4,1,1680.04,4,1472.30,famous_female12.jpg,0
26,24,2,2,22,2,1, 3,4,2,2,5556.69,1,994.77,famous_male03.jpg,0
26,24,2,2,23,1,2,14,2,2,1,2667.50,4,666.52,famous_female14.jpg,0
26,24,2,2,24,1,1, 5,1,1,1,1216.48,4,1356.35,famous_male05.jpg,0
26,24,2,2,25,1,2, 3,4,3,2,2133.74,1,707.08,famous_female03.jpg,0
26,24,2,2,26,2,2, 1,3,3,1,3087.70,1,845.24,famous_female01.jpg,0
26,24,2,2,27,2,2,13,1,1,1,1532.26,4,610.88,famous_female13.jpg,0
26,24,2,2,28,1,1,12,4,2,2,8603.54,2,914.38,famous_male12.jpg,0
26,24,2,2,29,1,1, 9,2,4,2,6965.91,1,537.24,famous_male09.jpg,0
26,24,2,2,30,1,1,13,4,4,1,3620.80,4,580.06,famous_male13.jpg,0
26,24,2,2,31,1,2,24,3,3,1,4869.51,2,672.21,famous_female24.jpg,0
26,24,2,2,32,1,2,22,2,2,1,1606.18,3,1169.96,famous_female22.jpg,0
26,24,2,2,33,2,2,19,1,3,2,3043.04,2,770.66,famous_female19.jpg,0
26,24,2,2,34,1,1, 4,3,3,1,1204.46,3,1976.98,famous_male04.jpg,0
26,24,2,2,35,1,2,21,3,3,1,2240.49,4,913.67,famous_female21.jpg,0
26,24,2,2,36,1,1,18,4,2,2,5469.18,2,1223.48,famous_male18.jpg,0
26,24,2,2,37,1,1,15,2,3,2,11470.38,1,284.89,famous_male15.jpg,0
26,24,2,2,38,1,2, 9,4,4,1,2058.99,4,859.85,famous_female09.jpg,0
26,24,2,2,39,2,2,18,3,3,1,3906.20,2,661.46,famous_female18.jpg,0
26,24,2,2,40,2,2,10,2,4,2,4372.11,1,611.84,famous_female10.jpg,0
26,24,2,2,41,2,2, 7,2,2,1,1604.61,1,752.40,famous_female07.jpg,0
26,24,2,2,42,2,2,17,2,3,2,3018.90,1,579.24,famous_female17.jpg,0
26,24,2,2,43,2,1,10,1,1,1,2460.70,4,444.92,famous_male10.jpg,0
26,24,2,2,44,1,2, 5,1,1,1,2187.96,3,903.21,famous_female05.jpg,0
26,24,2,2,45,2,1,24,4,3,2,2347.47,1,544.42,famous_male24.jpg,0
26,24,2,2,46,2,1,17,2,2,1,3004.00,1,781.11,famous_male17.jpg,0
26,24,2,2,47,1,2, 2,1,2,2,3606.18,2,734.09,famous_female02.jpg,0
26,24,2,2,48,2,1, 8,2,2,1,1873.25,4,1321.80,famous_male08.jpg,0
