SID,Block,Trial,RepTime,Resp,Corr,RT,ImgName
1,1,1,1,0,0,0,unfamfemale17.jpg
1,1,2,1,0,0,0,capture002 copy.jpg
1,1,3,1,0,0,0,capture017 copy.jpg
1,1,4,1,0,0,0,unfammale08.jpg
1,1,5,1,0,0,0,unfammale02.jpg
1,1,6,1,0,0,0,capture011 copy.jpg
1,1,7,1,0,0,0,unfamfemale04.jpg
1,1,8,1,0,0,0,unfamfemale20.jpg
1,1,9,2,0,0,0,unfamfemale17.jpg
1,1,10,1,0,0,0,unfamfemale24.jpg
1,1,11,1,0,0,0,unfamfemale39.jpg
1,1,12,1,0,0,0,unfamfemale15.jpg
1,1,13,1,0,0,0,unfammale12.jpg
1,1,14,1,0,0,0,unfamfemale03.jpg
1,1,15,1,0,0,0,unfammale35.jpg
1,1,16,3,1,0,809.34,unfamfemale17.jpg
1,1,17,1,0,0,0,capture016 copy.jpg
1,1,18,2,0,0,0,capture016 copy.jpg
1,1,19,2,0,0,0,capture017 copy.jpg
1,1,20,1,0,0,0,capture005 copy.jpg
1,1,21,1,0,0,0,unfamfemale32.jpg
1,1,22,1,0,0,0,unfammale16.jpg
1,1,23,2,0,0,0,unfamfemale20.jpg
1,1,24,2,0,0,0,unfamfemale04.jpg
1,1,25,1,0,0,0,unfamfemale37.jpg
1,1,26,1,0,0,0,capture021 copy.jpg
1,1,27,1,0,0,0,unfammale39.jpg
1,1,28,1,0,0,0,unfammale28.jpg
1,1,29,2,0,0,0,unfamfemale32.jpg
1,1,30,1,0,0,0,unfamfemale40.jpg
1,1,31,1,0,0,0,capture012 copy.jpg
1,1,32,1,0,0,0,capture015 copy.jpg
1,1,33,1,0,0,0,unfammale38.jpg
1,1,34,2,0,0,0,unfamfemale03.jpg
1,1,35,2,0,0,0,unfammale16.jpg
1,1,36,1,0,0,0,unfamfemale26.jpg
1,1,37,2,0,0,0,unfammale28.jpg
1,1,38,1,0,0,0,unfamfemale10.jpg
1,1,39,1,0,0,0,unfamfemale08.jpg
1,1,40,2,0,0,0,unfamfemale10.jpg
1,1,41,2,0,0,0,capture021 copy.jpg
1,1,42,2,0,0,0,unfammale39.jpg
1,1,43,3,0,0,0,unfamfemale03.jpg
1,1,44,1,0,0,0,unfammale05.jpg
1,1,45,1,0,0,0,capture013 copy.jpg
1,1,46,1,0,0,0,unfamfemale06.jpg
1,1,47,1,0,0,0,unfamfemale05.jpg
1,1,48,3,0,0,0,unfamfemale32.jpg
1,1,49,2,0,0,0,unfamfemale05.jpg
1,1,50,3,0,0,0,unfamfemale04.jpg
1,1,51,1,0,0,0,capture020 copy.jpg
1,1,52,2,0,0,0,unfamfemale06.jpg
1,1,53,2,0,0,0,capture005 copy.jpg
1,1,54,2,0,0,0,capture002 copy.jpg
1,1,55,2,0,0,0,unfammale02.jpg
1,1,56,2,0,0,0,unfamfemale39.jpg
1,1,57,1,0,0,0,unfammale21.jpg
1,1,58,1,0,0,0,unfammale14.jpg
1,1,59,1,0,0,0,unfammale25.jpg
1,1,60,2,0,0,0,unfamfemale24.jpg
1,1,61,1,0,0,0,unfammale33.jpg
1,1,62,1,0,0,0,unfammale09.jpg
1,1,63,1,0,0,0,unfamfemale01.jpg
1,1,64,2,0,0,0,capture015 copy.jpg
1,1,65,1,0,0,0,unfamfemale38.jpg
1,1,66,1,0,0,0,unfamfemale21.jpg
1,1,67,2,0,0,0,unfamfemale15.jpg
1,1,68,2,0,0,0,unfamfemale21.jpg
1,1,69,3,0,0,0,unfamfemale20.jpg
1,1,70,1,0,0,0,unfammale23.jpg
1,1,71,2,0,0,0,capture011 copy.jpg
1,1,72,1,0,0,0,capture003 copy.jpg
1,1,73,2,0,0,0,unfammale14.jpg
1,1,74,2,0,0,0,unfamfemale40.jpg
1,1,75,3,0,0,0,unfammale02.jpg
1,1,76,2,0,0,0,unfammale23.jpg
1,1,77,2,0,0,0,unfammale25.jpg
1,1,78,2,0,0,0,unfamfemale26.jpg
1,1,79,3,0,0,0,unfamfemale40.jpg
1,1,80,2,0,0,0,unfammale05.jpg
1,1,81,2,0,0,0,unfammale35.jpg
1,1,82,2,0,0,0,capture013 copy.jpg
1,1,83,3,0,0,0,unfammale39.jpg
1,1,84,1,0,0,0,unfammale19.jpg
1,1,85,2,0,0,0,unfamfemale08.jpg
1,1,86,2,0,0,0,unfammale33.jpg
1,1,87,1,0,0,0,capture001 copy.jpg
1,1,88,3,0,0,0,unfammale23.jpg
1,1,89,2,0,0,0,capture003 copy.jpg
1,1,90,2,0,0,0,unfamfemale01.jpg
1,1,91,3,0,0,0,unfamfemale05.jpg
1,1,92,3,0,0,0,capture017 copy.jpg
1,1,93,2,0,0,0,unfammale38.jpg
1,1,94,3,0,0,0,capture021 copy.jpg
1,1,95,2,0,0,0,capture001 copy.jpg
1,1,96,3,0,0,0,unfamfemale08.jpg
1,1,97,3,0,0,0,unfammale38.jpg
1,1,98,1,0,0,0,unfammale18.jpg
1,1,99,3,0,0,0,unfamfemale01.jpg
1,1,100,2,0,0,0,unfammale18.jpg
1,1,101,3,0,0,0,capture005 copy.jpg
1,1,102,3,0,0,0,capture003 copy.jpg
1,1,103,2,0,0,0,unfammale19.jpg
1,1,104,1,0,0,0,capture010 copy.jpg
1,1,105,3,0,0,0,unfamfemale39.jpg
1,1,106,3,0,0,0,capture002 copy.jpg
1,1,107,2,0,0,0,unfamfemale37.jpg
1,1,108,2,0,0,0,capture020 copy.jpg
1,1,109,3,0,0,0,capture015 copy.jpg
1,1,110,3,2,0,399.75,unfamfemale10.jpg
1,1,111,3,0,0,0,unfammale33.jpg
1,1,112,3,0,0,0,unfammale05.jpg
1,1,113,3,0,0,0,unfammale25.jpg
1,1,114,2,0,0,0,capture012 copy.jpg
1,1,115,3,0,0,0,unfamfemale24.jpg
1,1,116,3,0,0,0,unfamfemale37.jpg
1,1,117,2,0,0,0,unfammale08.jpg
1,1,118,3,0,0,0,unfammale19.jpg
1,1,119,2,0,0,0,unfammale21.jpg
1,1,120,3,0,0,0,unfammale28.jpg
1,1,121,3,0,0,0,capture011 copy.jpg
1,1,122,3,3,1,670.68,capture020 copy.jpg
1,1,123,3,3,1,252.6,unfamfemale06.jpg
1,1,124,3,2,0,546.46,unfammale21.jpg
1,1,125,3,0,0,0,unfammale16.jpg
1,1,126,3,0,0,0,unfammale35.jpg
1,1,127,2,2,1,220.2,unfamfemale38.jpg
1,1,128,3,3,1,650.14,capture001 copy.jpg
1,1,129,2,3,0,951.94,unfammale09.jpg
1,1,130,3,3,1,661.94,unfammale08.jpg
1,1,131,3,2,0,755.86,unfammale18.jpg
1,1,132,2,1,0,849.81,capture010 copy.jpg
1,1,133,3,2,0,855.72,capture013 copy.jpg
1,1,134,3,2,0,885.63,capture010 copy.jpg
1,1,135,3,2,0,1043.51,unfammale14.jpg
1,1,136,3,1,0,529.42,unfamfemale38.jpg
1,1,137,2,3,0,807.35,unfammale12.jpg
1,1,138,3,2,0,813.26,unfamfemale21.jpg
1,1,139,3,3,1,867.18,capture016 copy.jpg
1,1,140,3,1,0,865.1,unfamfemale26.jpg
1,1,141,3,3,1,791.01,unfamfemale15.jpg
1,1,142,3,3,1,764.92,unfammale12.jpg
1,1,143,3,3,1,970.81,unfammale09.jpg
1,1,144,3,3,1,592.71,capture012 copy.jpg
1,2,1,1,1,1,920.84,unfammale05.jpg
1,2,2,1,1,1,494.77,unfammale19.jpg
1,2,3,1,1,1,492.74,capture021 copy.jpg
1,2,4,1,1,1,698.66,capture012 copy.jpg
1,2,5,1,1,1,416.5,capture003 copy.jpg
1,2,6,1,1,1,390.48,unfammale35.jpg
1,2,7,1,2,0,676.35,capture001 copy.jpg
1,2,8,1,1,1,778.29,unfamfemale37.jpg
1,2,9,1,1,1,656.14,capture011 copy.jpg
1,2,10,1,1,1,782.13,unfamfemale39.jpg
1,2,11,1,1,1,644.04,unfamfemale10.jpg
1,2,12,1,1,1,785.91,unfammale08.jpg
1,2,13,1,1,1,807.86,unfammale02.jpg
1,2,14,1,2,0,773.75,unfamfemale17.jpg
1,2,15,1,2,0,819.63,unfammale16.jpg
1,2,16,2,3,0,913.6,capture012 copy.jpg
1,2,17,1,2,0,1087.45,unfamfemale38.jpg
1,2,18,1,1,1,509.42,unfammale21.jpg
1,2,19,1,1,1,939.28,capture020 copy.jpg
1,2,20,2,2,1,673.18,capture011 copy.jpg
1,2,21,2,2,1,831.09,capture021 copy.jpg
1,2,22,1,2,0,757.06,unfamfemale04.jpg
1,2,23,1,1,1,666.9,unfamfemale08.jpg
1,2,24,2,1,0,848.84,unfammale05.jpg
1,2,25,1,2,0,782.75,unfammale12.jpg
1,2,26,1,1,1,620.72,capture002 copy.jpg
1,2,27,1,2,0,778.59,unfammale14.jpg
1,2,28,2,3,0,1024.53,capture002 copy.jpg
1,2,29,2,2,1,966.41,unfamfemale10.jpg
1,2,30,2,2,1,788.36,unfamfemale04.jpg
1,2,31,1,2,0,858.27,unfamfemale05.jpg
1,2,32,2,3,0,776.18,unfamfemale17.jpg
1,2,33,1,3,0,1054.06,unfammale09.jpg
1,2,34,1,2,0,587.96,unfamfemale06.jpg
1,2,35,2,2,1,817.89,unfammale02.jpg
1,2,36,1,2,0,711.83,unfammale25.jpg
1,2,37,3,3,1,645.71,capture002 copy.jpg
1,2,38,1,2,0,795.66,capture010 copy.jpg
1,2,39,1,1,1,753.57,unfammale18.jpg
1,2,40,2,1,0,519.46,unfammale25.jpg
1,2,41,1,2,0,733.33,unfamfemale01.jpg
1,2,42,2,2,1,859.27,unfamfemale37.jpg
1,2,43,1,1,1,785.17,unfammale39.jpg
1,2,44,2,3,0,735.08,unfammale12.jpg
1,2,45,1,1,1,805.04,unfammale28.jpg
1,2,46,2,2,1,714.93,unfamfemale39.jpg
1,2,47,2,2,1,712.86,unfammale28.jpg
1,2,48,2,2,1,878.76,unfammale21.jpg
1,2,49,1,1,1,644.66,unfammale33.jpg
1,2,50,2,3,0,930.56,unfammale09.jpg
1,2,51,1,1,1,840.49,unfamfemale21.jpg
1,2,52,1,3,0,846.41,unfamfemale15.jpg
1,2,53,2,2,1,804.33,unfamfemale08.jpg
1,2,54,1,1,1,890.24,capture015 copy.jpg
1,2,55,2,2,1,760.15,unfammale19.jpg
1,2,56,1,1,1,718.04,unfamfemale03.jpg
1,2,57,2,2,1,723.98,unfammale18.jpg
1,2,58,3,3,1,665.89,capture012 copy.jpg
1,2,59,1,1,1,858.42,capture017 copy.jpg
1,2,60,2,3,0,880.31,unfamfemale01.jpg
1,2,61,1,3,0,838.3,capture016 copy.jpg
1,2,62,2,2,1,844.21,capture020 copy.jpg
1,2,63,3,3,1,578.1,unfamfemale01.jpg
1,2,64,3,2,0,863.99,unfammale25.jpg
1,2,65,1,3,0,1045.94,unfamfemale20.jpg
1,2,66,1,1,1,627.82,unfamfemale40.jpg
1,2,67,2,2,1,881.77,unfamfemale15.jpg
1,2,68,2,3,0,687.67,unfamfemale06.jpg
1,2,69,2,2,1,773.59,unfamfemale38.jpg
1,2,70,2,3,0,635.5,unfammale14.jpg
1,2,71,2,1,0,777.35,unfammale16.jpg
1,2,72,2,2,1,711.33,unfammale35.jpg
1,2,73,1,2,0,829.24,unfamfemale26.jpg
1,2,74,2,3,0,803.15,capture015 copy.jpg
1,2,75,1,3,0,609.04,unfamfemale32.jpg
1,2,76,3,3,1,750.96,unfammale21.jpg
1,2,77,3,3,1,788.89,capture011 copy.jpg
1,2,78,1,2,0,866.8,unfamfemale24.jpg
1,2,79,1,1,1,592.67,unfammale23.jpg
1,2,80,2,3,0,918.61,unfamfemale20.jpg
1,2,81,2,3,0,908.5,unfamfemale03.jpg
1,2,82,2,1,0,730.44,unfammale39.jpg
1,2,83,3,3,1,904.33,unfammale19.jpg
1,2,84,3,3,1,886.24,capture020 copy.jpg
1,2,85,2,2,1,788.18,unfamfemale40.jpg
1,2,86,2,3,0,802.09,capture001 copy.jpg
1,2,87,2,2,1,927.9,unfammale08.jpg
1,2,88,2,2,1,765.86,unfammale23.jpg
1,2,89,3,2,0,787.82,unfamfemale17.jpg
1,2,90,2,3,0,857.74,unfamfemale32.jpg
1,2,91,3,3,1,711.65,unfammale18.jpg
1,2,92,3,3,1,781.56,unfammale39.jpg
1,2,93,3,2,0,883.42,capture021 copy.jpg
1,2,94,2,2,1,1049.39,capture010 copy.jpg
1,2,95,2,2,1,871.26,capture017 copy.jpg
1,2,96,2,2,1,757.21,unfammale33.jpg
1,2,97,2,3,0,835.12,unfamfemale24.jpg
1,2,98,3,3,1,825.01,unfammale09.jpg
1,2,99,3,3,1,774.89,unfammale08.jpg
1,2,100,3,3,1,636.83,unfammale23.jpg
1,2,101,2,2,1,818.75,capture003 copy.jpg
1,2,102,1,1,1,680.68,unfammale38.jpg
1,2,103,2,1,0,902.59,unfamfemale26.jpg
1,2,104,1,1,1,676.5,capture005 copy.jpg
1,2,105,2,2,1,810.41,unfamfemale21.jpg
1,2,106,2,3,0,768.24,unfamfemale05.jpg
1,2,107,2,3,0,742.22,capture016 copy.jpg
1,2,108,2,1,0,868.1,unfammale38.jpg
1,2,109,3,1,0,922.06,unfammale35.jpg
1,2,110,3,2,0,863.92,unfamfemale37.jpg
1,2,111,3,2,0,853.88,unfammale33.jpg
1,2,112,3,3,1,795.8,capture017 copy.jpg
1,2,113,3,3,1,769.67,capture016 copy.jpg
1,2,114,3,2,0,1007.62,capture015 copy.jpg
1,2,115,3,1,0,637.48,unfamfemale10.jpg
1,2,116,3,3,1,867.38,unfamfemale15.jpg
1,2,117,3,2,0,1121.35,unfammale02.jpg
1,2,118,3,1,0,799.26,unfamfemale06.jpg
1,2,119,3,2,0,789.18,unfamfemale26.jpg
1,2,120,3,1,0,859.09,unfamfemale40.jpg
1,2,121,3,2,0,840.94,unfamfemale08.jpg
1,2,122,1,1,1,686.91,capture013 copy.jpg
1,2,123,3,2,0,860.83,unfammale12.jpg
1,2,124,3,3,1,890.74,unfamfemale39.jpg
1,2,125,3,2,0,872.63,unfammale16.jpg
1,2,126,2,2,1,886.56,capture005 copy.jpg
1,2,127,3,2,0,788.47,unfammale38.jpg
1,2,128,3,3,1,858.38,capture001 copy.jpg
1,2,129,3,1,0,952.3,unfammale05.jpg
1,2,130,3,1,0,838.21,unfamfemale21.jpg
1,2,131,3,2,0,916.12,capture003 copy.jpg
1,2,132,3,2,0,930.01,unfamfemale32.jpg
1,2,133,3,3,1,871.91,unfamfemale20.jpg
1,2,134,3,0,0,0,unfamfemale04.jpg
1,2,135,3,2,0,307.76,unfamfemale38.jpg
1,2,136,3,1,0,609.66,unfammale14.jpg
1,2,137,3,3,1,999.6,capture010 copy.jpg
1,2,138,3,3,1,717.44,unfamfemale24.jpg
1,2,139,2,3,0,755.41,capture013 copy.jpg
1,2,140,3,2,0,609.3,unfammale28.jpg
1,2,141,3,2,0,639.2,capture005 copy.jpg
1,2,142,3,3,1,757.09,unfamfemale05.jpg
1,2,143,3,2,0,835.06,unfamfemale03.jpg
1,2,144,3,1,0,528.92,capture013 copy.jpg
1,3,1,1,1,1,712.58,unfammale05.jpg
1,3,2,1,1,1,686.51,capture003 copy.jpg
1,3,3,1,1,1,588.43,unfammale33.jpg
1,3,4,1,1,1,546.36,unfamfemale24.jpg
1,3,5,1,1,1,616.28,unfammale38.jpg
1,3,6,1,1,1,606.19,unfamfemale20.jpg
1,3,7,1,1,1,524.1,unfammale16.jpg
1,3,8,1,1,1,553.96,unfamfemale21.jpg
1,3,9,1,1,1,599.89,unfammale14.jpg
1,3,10,1,1,1,597.76,unfammale12.jpg
1,3,11,1,1,1,523.72,unfamfemale10.jpg
1,3,12,2,1,0,561.62,unfamfemale21.jpg
1,3,13,1,1,1,527.5,unfamfemale03.jpg
1,3,14,1,1,1,557.49,unfammale19.jpg
1,3,15,1,1,1,755.35,unfammale23.jpg
1,3,16,1,1,1,577.27,unfamfemale40.jpg
1,3,17,1,1,1,575.2,unfamfemale26.jpg
1,3,18,1,1,1,501.13,capture020 copy.jpg
1,3,19,2,2,1,570.98,unfammale19.jpg
1,3,20,1,1,1,584.95,unfamfemale32.jpg
1,3,21,2,1,0,878.88,unfammale05.jpg
1,3,22,1,1,1,724.72,unfamfemale39.jpg
1,3,23,1,1,1,562.64,unfamfemale38.jpg
1,3,24,2,1,0,568.59,unfamfemale10.jpg
1,3,25,1,1,1,606.52,unfamfemale04.jpg
1,3,26,2,2,1,580.41,unfamfemale04.jpg
1,3,27,1,1,1,578.34,unfammale39.jpg
1,3,28,1,1,1,664.19,capture012 copy.jpg
1,3,29,1,1,1,494.16,capture016 copy.jpg
1,3,30,2,1,0,628.08,unfamfemale26.jpg
1,3,31,1,1,1,553.96,unfammale35.jpg
1,3,32,2,2,1,679.89,unfamfemale39.jpg
1,3,33,1,1,1,581.81,capture002 copy.jpg
1,3,34,1,1,1,603.72,unfamfemale37.jpg
1,3,35,1,1,1,529.63,unfammale28.jpg
1,3,36,1,1,1,575.52,unfammale21.jpg
1,3,37,2,2,1,693.44,unfamfemale32.jpg
1,3,38,2,2,1,755.37,unfamfemale37.jpg
1,3,39,1,1,1,569.23,unfammale02.jpg
1,3,40,2,1,0,455.19,unfammale39.jpg
1,3,41,2,1,0,517.03,unfammale16.jpg
1,3,42,2,1,0,579.02,unfammale23.jpg
1,3,43,1,1,1,600.92,unfammale08.jpg
1,3,44,1,1,1,502.78,unfamfemale01.jpg
1,3,45,1,1,1,612.75,unfamfemale17.jpg
1,3,46,2,2,1,714.64,unfammale14.jpg
1,3,47,1,1,1,536.52,unfamfemale08.jpg
1,3,48,2,2,1,638.49,unfamfemale08.jpg
1,3,49,1,1,1,652.38,unfamfemale05.jpg
1,3,50,2,1,0,594.28,unfamfemale40.jpg
1,3,51,2,2,1,872.2,unfamfemale03.jpg
1,3,52,1,1,1,670.13,capture005 copy.jpg
1,3,53,2,1,0,844.05,capture003 copy.jpg
1,3,54,1,1,1,641.91,unfammale25.jpg
1,3,55,1,1,1,639.87,capture001 copy.jpg
1,3,56,2,1,0,893.73,capture020 copy.jpg
1,3,57,3,2,0,723.68,unfamfemale08.jpg
1,3,58,1,1,1,641.55,unfamfemale06.jpg
1,3,59,3,1,0,847.52,unfamfemale21.jpg
1,3,60,2,1,0,605.38,unfamfemale38.jpg
1,3,61,2,2,1,595.32,capture016 copy.jpg
1,3,62,1,1,1,753.21,capture017 copy.jpg
1,3,63,2,2,1,911.12,capture002 copy.jpg
1,3,64,1,1,1,741.02,unfamfemale15.jpg
1,3,65,2,2,1,738.96,capture005 copy.jpg
1,3,66,1,1,1,560.89,unfammale09.jpg
1,3,67,2,2,1,662.81,unfamfemale06.jpg
1,3,68,3,3,1,772.67,capture005 copy.jpg
1,3,69,1,1,1,650.62,capture011 copy.jpg
1,3,70,2,2,1,744.55,capture012 copy.jpg
1,3,71,2,2,1,558.45,unfamfemale15.jpg
1,3,72,2,2,1,772.31,unfammale25.jpg
1,3,73,2,2,1,570.24,capture017 copy.jpg
1,3,74,1,1,1,536.19,capture021 copy.jpg
1,3,75,2,2,1,606.06,capture011 copy.jpg
1,3,76,2,2,1,923.94,unfamfemale01.jpg
1,3,77,2,2,1,689.91,unfammale21.jpg
1,3,78,3,2,0,719.81,unfamfemale37.jpg
1,3,79,3,2,0,517.73,unfamfemale15.jpg
1,3,80,2,2,1,739.66,unfammale38.jpg
1,3,81,3,1,0,857.52,unfammale16.jpg
1,3,82,3,2,0,759.49,unfammale05.jpg
1,3,83,2,2,1,877.32,unfammale35.jpg
1,3,84,2,2,1,779.31,unfamfemale24.jpg
1,3,85,3,2,0,625.22,unfamfemale38.jpg
1,3,86,2,1,0,791.09,unfammale08.jpg
1,3,87,3,2,0,853.04,unfamfemale03.jpg
1,3,88,3,3,1,850.91,capture003 copy.jpg
1,3,89,3,2,0,864.81,capture016 copy.jpg
1,3,90,2,2,1,750.73,capture021 copy.jpg
1,3,91,2,2,1,796.66,unfammale02.jpg
1,3,92,3,3,1,1026.59,unfammale08.jpg
1,3,93,3,2,0,984.49,capture017 copy.jpg
1,3,94,3,2,0,878.43,unfamfemale04.jpg
1,3,95,3,3,1,740.31,unfamfemale39.jpg
1,3,96,2,3,0,738.25,unfammale09.jpg
1,3,97,2,3,0,584.16,unfamfemale05.jpg
1,3,98,3,2,0,742.05,unfamfemale10.jpg
1,3,99,3,2,0,867.99,capture012 copy.jpg
1,3,100,3,2,0,793.84,unfammale19.jpg
1,3,101,1,2,0,775.81,capture013 copy.jpg
1,3,102,3,2,0,669.72,capture020 copy.jpg
1,3,103,3,3,1,891.6,capture002 copy.jpg
1,3,104,1,2,0,729.47,capture015 copy.jpg
1,3,105,3,3,1,751.42,unfamfemale05.jpg
1,3,106,2,3,0,645.34,capture015 copy.jpg
1,3,107,2,3,0,803.24,capture013 copy.jpg
1,3,108,3,3,1,705.18,unfammale35.jpg
1,3,109,1,1,1,799.09,unfammale18.jpg
1,3,110,3,3,1,829.02,unfamfemale06.jpg
1,3,111,3,3,1,618.92,unfamfemale01.jpg
1,3,112,2,2,1,720.82,capture001 copy.jpg
1,3,113,2,2,1,742.67,unfammale18.jpg
1,3,114,3,2,0,692.61,capture021 copy.jpg
1,3,115,3,3,1,738.57,capture015 copy.jpg
1,3,116,3,3,1,672.45,capture013 copy.jpg
1,3,117,1,2,0,726.37,capture010 copy.jpg
1,3,118,2,2,1,636.26,unfammale33.jpg
1,3,119,2,2,1,658.19,unfammale12.jpg
1,3,120,2,3,0,952.11,unfamfemale20.jpg
1,3,121,3,1,0,998.04,unfamfemale20.jpg
1,3,122,3,2,0,563.95,unfammale12.jpg
1,3,123,2,3,0,705.86,unfamfemale17.jpg
1,3,124,3,1,0,695.78,unfamfemale17.jpg
1,3,125,2,2,1,949.65,capture010 copy.jpg
1,3,126,3,3,1,955.6,unfammale21.jpg
1,3,127,3,3,1,849.46,unfammale18.jpg
1,3,128,3,3,1,927.4,unfammale14.jpg
1,3,129,3,1,0,869.34,unfamfemale24.jpg
1,3,130,3,2,0,763.23,unfammale02.jpg
1,3,131,3,3,1,553.16,unfammale09.jpg
1,3,132,3,3,1,670.88,capture010 copy.jpg
1,3,133,2,1,0,476.97,unfammale28.jpg
1,3,134,3,3,1,586.85,unfamfemale32.jpg
1,3,135,3,2,0,864.73,capture001 copy.jpg
1,3,136,3,2,0,910.72,unfamfemale40.jpg
1,3,137,3,2,0,652.6,unfammale38.jpg
1,3,138,3,3,1,714.54,capture011 copy.jpg
1,3,139,3,2,0,728.43,unfamfemale26.jpg
1,3,140,3,1,0,846.35,unfammale28.jpg
1,3,141,3,2,0,764.28,unfammale25.jpg
1,3,142,3,3,1,610.19,unfammale33.jpg
1,3,143,3,1,0,896.1,unfammale39.jpg
1,3,144,3,3,1,845.95,unfammale23.jpg
1,4,1,1,1,1,653.4,unfammale18.jpg
1,4,2,1,1,1,419.3,capture016 copy.jpg
1,4,3,1,1,1,457.18,capture011 copy.jpg
1,4,4,1,1,1,439.09,unfamfemale39.jpg
1,4,5,1,1,1,389.01,unfammale28.jpg
1,4,6,1,1,1,458.94,unfamfemale08.jpg
1,4,7,1,1,1,512.87,unfamfemale05.jpg
1,4,8,1,1,1,454.78,unfamfemale06.jpg
1,4,9,1,1,1,396.68,unfamfemale26.jpg
1,4,10,1,1,1,458.56,capture021 copy.jpg
1,4,11,1,2,0,576.48,unfamfemale40.jpg
1,4,12,1,1,1,574.37,unfamfemale32.jpg
1,4,13,2,2,1,580.28,unfamfemale32.jpg
1,4,14,1,1,1,770.2,unfamfemale38.jpg
1,4,15,1,1,1,696.17,unfamfemale21.jpg
1,4,16,1,1,1,566.06,unfammale14.jpg
1,4,17,2,1,0,627.98,unfammale28.jpg
1,4,18,1,1,1,537.89,capture020 copy.jpg
1,4,19,1,1,1,503.81,unfammale25.jpg
1,4,20,1,1,1,565.72,capture005 copy.jpg
1,4,21,2,2,1,691.63,capture011 copy.jpg
1,4,22,1,1,1,697.53,unfammale21.jpg
1,4,23,1,1,1,599.4,unfammale19.jpg
1,4,24,2,2,1,717.37,capture020 copy.jpg
1,4,25,1,1,1,659.25,capture010 copy.jpg
1,4,26,2,2,1,745.19,capture016 copy.jpg
1,4,27,1,1,1,607.04,unfamfemale20.jpg
1,4,28,2,2,1,725.02,unfamfemale40.jpg
1,4,29,1,1,1,658.92,unfamfemale15.jpg
1,4,30,1,1,1,560.82,unfammale39.jpg
1,4,31,1,1,1,942.71,unfammale23.jpg
1,4,32,1,1,1,548.62,capture002 copy.jpg
1,4,33,2,1,0,538.56,unfamfemale08.jpg
1,4,34,1,2,0,520.48,unfammale16.jpg
1,4,35,1,1,1,630.36,unfammale08.jpg
1,4,36,2,1,0,780.3,capture005 copy.jpg
1,4,37,1,1,1,370.2,capture001 copy.jpg
1,4,38,2,1,0,392.13,unfammale39.jpg
1,4,39,1,1,1,422.03,unfamfemale03.jpg
1,4,40,3,2,0,587.94,capture016 copy.jpg
1,4,41,1,1,1,537.84,unfamfemale01.jpg
1,4,42,1,1,1,495.74,capture015 copy.jpg
1,4,43,1,1,1,365.67,unfammale35.jpg
1,4,44,3,1,0,355.56,capture005 copy.jpg
1,4,45,1,1,1,409.51,unfamfemale10.jpg
1,4,46,1,1,1,511.38,unfamfemale37.jpg
1,4,47,1,1,1,605.3,unfammale38.jpg
1,4,48,2,2,1,539.25,capture010 copy.jpg
1,4,49,2,2,1,593.12,capture001 copy.jpg
1,4,50,1,1,1,638.68,capture017 copy.jpg
1,4,51,2,2,1,725,unfammale21.jpg
1,4,52,1,2,0,802.9,unfammale33.jpg
1,4,53,1,1,1,864.81,capture013 copy.jpg
1,4,54,2,2,1,494.68,capture013 copy.jpg
1,4,55,2,1,0,604.58,unfamfemale39.jpg
1,4,56,1,1,1,586.54,unfammale12.jpg
1,4,57,2,1,0,576.43,unfamfemale26.jpg
1,4,58,1,1,1,662.31,unfamfemale24.jpg
1,4,59,2,2,1,876.29,unfamfemale03.jpg
1,4,60,3,2,0,410.13,unfamfemale03.jpg
1,4,61,1,1,1,760.1,capture003 copy.jpg
1,4,62,2,2,1,989.96,unfamfemale20.jpg
1,4,63,2,2,1,923.93,capture015 copy.jpg
1,4,64,1,1,1,873.78,unfammale09.jpg
1,4,65,3,3,1,823.71,unfammale21.jpg
1,4,66,2,2,1,861.66,unfamfemale38.jpg
1,4,67,2,2,1,931.55,capture002 copy.jpg
1,4,68,2,2,1,745.48,unfamfemale24.jpg
1,4,69,3,2,0,767.4,capture020 copy.jpg
1,4,70,2,2,1,885.31,unfammale23.jpg
1,4,71,2,2,1,819.22,unfammale09.jpg
1,4,72,3,3,1,897.1,unfamfemale20.jpg
1,4,73,1,2,0,923.25,capture012 copy.jpg
1,4,74,1,1,1,652.92,unfamfemale04.jpg
1,4,75,3,2,0,834.84,unfamfemale40.jpg
1,4,76,2,2,1,720.78,capture017 copy.jpg
1,4,77,2,2,1,918.69,capture003 copy.jpg
1,4,78,2,1,0,748.61,unfammale16.jpg
1,4,79,2,2,1,922.52,unfamfemale01.jpg
1,4,80,3,3,1,856.43,capture003 copy.jpg
1,4,81,2,1,0,638.34,unfamfemale06.jpg
1,4,82,2,2,1,684.24,unfamfemale10.jpg
1,4,83,3,3,1,938.16,capture010 copy.jpg
1,4,84,1,2,0,944.07,unfammale05.jpg
1,4,85,3,2,0,1029.96,capture011 copy.jpg
1,4,86,2,2,1,819.89,unfamfemale37.jpg
1,4,87,2,2,1,865.75,unfamfemale15.jpg
1,4,88,2,2,1,719.69,unfammale25.jpg
1,4,89,3,3,1,445.63,unfammale25.jpg
1,4,90,2,1,0,859.55,unfammale38.jpg
1,4,91,3,3,1,665.44,capture017 copy.jpg
1,4,92,2,2,1,879.37,unfammale12.jpg
1,4,93,3,3,1,709.24,unfamfemale10.jpg
1,4,94,2,2,1,995.14,unfammale14.jpg
1,4,95,3,3,1,633.09,unfammale14.jpg
1,4,96,2,3,0,1111.01,unfamfemale21.jpg
1,4,97,2,2,1,780.92,unfammale19.jpg
1,4,98,3,3,1,802.82,unfammale09.jpg
1,4,99,3,3,1,888.75,unfamfemale24.jpg
1,4,100,2,2,1,734.66,unfammale35.jpg
1,4,101,2,3,0,916.57,capture021 copy.jpg
1,4,102,3,3,1,666.48,unfamfemale01.jpg
1,4,103,2,3,0,712.39,unfammale05.jpg
1,4,104,3,3,1,846.28,unfammale16.jpg
1,4,105,3,1,0,708.2,unfammale05.jpg
1,4,106,1,3,0,786.07,unfammale02.jpg
1,4,107,3,3,1,952.04,capture013 copy.jpg
1,4,108,2,3,0,789.95,capture012 copy.jpg
1,4,109,3,3,1,771.86,capture015 copy.jpg
1,4,110,2,2,1,969.76,unfamfemale04.jpg
1,4,111,3,1,0,847.69,unfammale39.jpg
1,4,112,3,2,0,845.6,unfamfemale08.jpg
1,4,113,3,3,1,955.48,unfamfemale37.jpg
1,4,114,2,2,1,857.37,unfamfemale05.jpg
1,4,115,3,3,1,511.33,unfamfemale05.jpg
1,4,116,2,3,0,757.24,unfammale18.jpg
1,4,117,3,3,1,1011.12,unfammale38.jpg
1,4,118,3,2,0,801.07,unfammale28.jpg
1,4,119,3,3,1,742.99,unfamfemale39.jpg
1,4,120,3,3,1,828.85,unfamfemale21.jpg
1,4,121,2,1,0,1002.77,unfammale02.jpg
1,4,122,3,3,1,792.66,unfammale19.jpg
1,4,123,3,3,1,854.61,unfamfemale06.jpg
1,4,124,3,3,1,820.46,capture021 copy.jpg
1,4,125,3,1,0,938.39,unfammale18.jpg
1,4,126,3,2,0,800.37,unfammale12.jpg
1,4,127,3,3,1,750.22,unfammale02.jpg
1,4,128,3,3,1,948.19,unfamfemale32.jpg
1,4,129,1,3,0,1042.1,unfamfemale17.jpg
1,4,130,3,3,1,752.01,unfammale23.jpg
1,4,131,2,2,1,797.86,unfammale08.jpg
1,4,132,2,1,0,819.78,unfamfemale17.jpg
1,4,133,2,2,1,769.74,unfammale33.jpg
1,4,134,3,3,1,719.66,capture001 copy.jpg
1,4,135,3,3,1,573.55,unfammale08.jpg
1,4,136,3,2,0,787.45,unfamfemale26.jpg
1,4,137,3,3,1,609.39,capture002 copy.jpg
1,4,138,3,1,0,919.31,unfamfemale04.jpg
1,4,139,3,3,1,645.14,unfamfemale15.jpg
1,4,140,3,2,0,763.13,unfammale35.jpg
1,4,141,3,3,1,753.02,unfamfemale38.jpg
1,4,142,3,1,0,766.92,unfammale33.jpg
1,4,143,3,1,0,1164.86,unfamfemale17.jpg
1,4,144,3,3,1,722.74,capture012 copy.jpg
1,5,1,1,1,1,509.92,unfammale19.jpg
1,5,2,1,1,1,467.76,unfammale33.jpg
1,5,3,1,1,1,369.68,unfammale18.jpg
1,5,4,1,1,1,359.61,unfammale38.jpg
1,5,5,1,1,1,349.5,unfamfemale15.jpg
1,5,6,1,1,1,403.46,unfamfemale03.jpg
1,5,7,1,1,1,289.33,capture020 copy.jpg
1,5,8,1,1,1,367.27,capture021 copy.jpg
1,5,9,2,2,1,621.2,unfammale33.jpg
1,5,10,1,1,1,603.11,capture012 copy.jpg
1,5,11,1,1,1,537.01,unfamfemale24.jpg
1,5,12,1,1,1,518.89,unfamfemale06.jpg
1,5,13,1,1,1,460.83,unfamfemale40.jpg
1,5,14,1,1,1,546.74,unfammale09.jpg
1,5,15,1,1,1,552.66,unfamfemale32.jpg
1,5,16,1,1,1,414.57,unfamfemale04.jpg
1,5,17,1,1,1,540.49,unfamfemale21.jpg
1,5,18,1,1,1,610.38,capture010 copy.jpg
1,5,19,1,2,0,808.27,capture001 copy.jpg
1,5,20,1,1,1,886.23,capture013 copy.jpg
1,5,21,1,1,1,708.09,unfamfemale08.jpg
1,5,22,2,2,1,586.05,capture021 copy.jpg
1,5,23,1,1,1,647.94,unfammale21.jpg
1,5,24,2,1,0,701.85,unfamfemale15.jpg
1,5,25,1,1,1,651.77,unfamfemale05.jpg
1,5,26,2,2,1,785.7,unfamfemale03.jpg
1,5,27,1,1,1,639.47,unfamfemale10.jpg
1,5,28,1,1,1,565.45,capture017 copy.jpg
1,5,29,1,1,1,523.44,unfammale39.jpg
1,5,30,2,2,1,577.35,unfamfemale10.jpg
1,5,31,1,2,0,743.2,unfamfemale38.jpg
1,5,32,2,2,1,709.12,unfamfemale24.jpg
1,5,33,1,1,1,747.04,unfammale28.jpg
1,5,34,1,1,1,672.93,capture003 copy.jpg
1,5,35,1,1,1,582.89,unfamfemale37.jpg
1,5,36,2,2,1,604.82,capture001 copy.jpg
1,5,37,1,1,1,930.73,unfammale12.jpg
1,5,38,2,2,1,816.58,unfamfemale08.jpg
1,5,39,3,1,0,718.55,unfammale33.jpg
1,5,40,1,2,0,828.41,unfammale02.jpg
1,5,41,1,2,0,778.36,unfammale35.jpg
1,5,42,1,2,0,800.27,unfamfemale17.jpg
1,5,43,1,2,0,774.2,unfammale23.jpg
1,5,44,1,1,1,692.1,unfamfemale01.jpg
1,5,45,2,2,1,682.02,unfammale21.jpg
1,5,46,2,2,1,567.89,unfamfemale01.jpg
1,5,47,1,1,1,581.78,unfammale05.jpg
1,5,48,1,2,0,739.75,capture002 copy.jpg
1,5,49,2,2,1,801.67,unfammale28.jpg
1,5,50,2,1,0,759.57,unfamfemale40.jpg
1,5,51,2,2,1,821.44,unfammale35.jpg
1,5,52,1,1,1,715.4,unfamfemale39.jpg
1,5,53,1,1,1,625.25,unfamfemale20.jpg
1,5,54,2,1,0,591.19,unfammale19.jpg
1,5,55,3,3,1,725.14,unfammale21.jpg
1,5,56,3,1,0,875.05,capture001 copy.jpg
1,5,57,3,3,1,888.9,capture021 copy.jpg
1,5,58,3,2,0,734.87,unfamfemale10.jpg
1,5,59,2,2,1,844.74,unfamfemale20.jpg
1,5,60,1,1,1,858.68,unfammale16.jpg
1,5,61,1,2,0,696.54,unfammale08.jpg
1,5,62,2,2,1,926.52,unfammale02.jpg
1,5,63,3,2,0,868.37,unfamfemale15.jpg
1,5,64,1,1,1,770.31,capture015 copy.jpg
1,5,65,2,2,1,768.25,capture012 copy.jpg
1,5,66,1,1,1,742.1,capture016 copy.jpg
1,5,67,2,2,1,884.08,unfammale16.jpg
1,5,68,2,2,1,793.93,unfamfemale04.jpg
1,5,69,2,2,1,847.9,capture013 copy.jpg
1,5,70,3,3,1,797.81,capture012 copy.jpg
1,5,71,2,1,0,675.72,unfammale18.jpg
1,5,72,1,1,1,729.6,capture011 copy.jpg
1,5,73,2,2,1,831.5,unfammale38.jpg
1,5,74,2,2,1,709.46,capture002 copy.jpg
1,5,75,2,2,1,739.31,unfammale09.jpg
1,5,76,2,2,1,697.25,capture015 copy.jpg
1,5,77,2,2,1,679.15,capture011 copy.jpg
1,5,78,2,3,0,805.11,unfamfemale37.jpg
1,5,79,3,3,1,658.99,capture002 copy.jpg
1,5,80,2,2,1,904.92,unfammale05.jpg
1,5,81,3,2,0,822.82,unfammale35.jpg
1,5,82,3,3,1,852.72,unfamfemale08.jpg
1,5,83,2,2,1,1082.65,unfammale08.jpg
1,5,84,2,2,1,840.58,capture016 copy.jpg
1,5,85,2,2,1,638.45,capture017 copy.jpg
1,5,86,3,2,0,820.4,unfammale28.jpg
1,5,87,1,1,1,698.26,capture005 copy.jpg
1,5,88,3,2,0,712.22,unfammale09.jpg
1,5,89,2,2,1,734.11,unfamfemale21.jpg
1,5,90,2,2,1,644.05,unfamfemale06.jpg
1,5,91,2,2,1,657.95,capture003 copy.jpg
1,5,92,2,2,1,767.82,unfammale12.jpg
1,5,93,3,3,1,877.76,unfamfemale21.jpg
1,5,94,2,1,0,627.69,unfammale39.jpg
1,5,95,2,2,1,721.56,unfamfemale38.jpg
1,5,96,1,1,1,823.52,unfammale14.jpg
1,5,97,3,3,1,765.43,unfamfemale38.jpg
1,5,98,3,3,1,883.32,unfammale39.jpg
1,5,99,3,2,0,833.25,unfammale19.jpg
1,5,100,2,3,0,871.17,capture005 copy.jpg
1,5,101,2,2,1,909.03,capture010 copy.jpg
1,5,102,3,3,1,946.96,unfamfemale20.jpg
1,5,103,2,2,1,1008.87,unfamfemale32.jpg
1,5,104,1,1,1,822.78,unfammale25.jpg
1,5,105,3,3,1,772.72,capture013 copy.jpg
1,5,106,3,3,1,1066.58,unfamfemale06.jpg
1,5,107,1,1,1,648.51,unfamfemale26.jpg
1,5,108,3,2,0,742.46,capture017 copy.jpg
1,5,109,3,2,0,916.31,unfamfemale03.jpg
1,5,110,2,2,1,882.28,unfamfemale05.jpg
1,5,111,2,3,0,816.13,unfammale14.jpg
1,5,112,2,3,0,854.06,unfamfemale17.jpg
1,5,113,3,2,0,868.01,unfammale18.jpg
1,5,114,3,3,1,881.93,capture010 copy.jpg
1,5,115,2,3,0,919.84,unfammale23.jpg
1,5,116,3,3,1,645.75,unfammale02.jpg
1,5,117,3,3,1,683.63,capture016 copy.jpg
1,5,118,3,3,1,913.53,unfamfemale04.jpg
1,5,119,2,3,0,687.44,unfamfemale39.jpg
1,5,120,3,3,1,741.39,capture005 copy.jpg
1,5,121,3,3,1,659.3,unfammale14.jpg
1,5,122,3,3,1,665.17,unfammale05.jpg
1,5,123,3,2,0,887.13,unfamfemale37.jpg
1,5,124,3,3,1,717,unfamfemale01.jpg
1,5,125,3,3,1,730.93,unfamfemale39.jpg
1,5,126,3,3,1,736.8,unfamfemale05.jpg
1,5,127,3,3,1,822.76,unfammale08.jpg
1,5,128,3,2,0,660.69,unfammale16.jpg
1,5,129,2,2,1,786.6,unfamfemale26.jpg
1,5,130,3,2,0,776.51,capture003 copy.jpg
1,5,131,2,3,0,838.42,unfammale25.jpg
1,5,132,3,3,1,660.32,unfamfemale26.jpg
1,5,133,3,3,1,618.23,capture015 copy.jpg
1,5,134,2,2,1,728.15,capture020 copy.jpg
1,5,135,3,1,0,726.06,unfamfemale40.jpg
1,5,136,3,1,0,683.98,unfammale38.jpg
1,5,137,3,2,0,705.86,capture011 copy.jpg
1,5,138,3,3,1,823.81,unfammale25.jpg
1,5,139,3,3,1,805.72,unfamfemale24.jpg
1,5,140,3,3,1,659.58,capture020 copy.jpg
1,5,141,3,3,1,601.51,unfamfemale32.jpg
1,5,142,3,3,1,807.41,unfamfemale17.jpg
1,5,143,3,3,1,749.32,unfammale12.jpg
1,5,144,3,3,1,723.25,unfammale23.jpg
1,6,1,1,1,1,609.63,capture001 copy.jpg
1,6,2,1,1,1,455.48,capture021 copy.jpg
1,6,3,1,1,1,317.44,unfamfemale06.jpg
1,6,4,1,1,1,331.33,unfamfemale32.jpg
1,6,5,2,1,0,401.26,unfamfemale32.jpg
1,6,6,1,1,1,463.17,unfammale14.jpg
1,6,7,1,1,1,437.05,unfammale08.jpg
1,6,8,2,1,0,562.95,capture021 copy.jpg
1,6,9,1,1,1,392.91,unfammale39.jpg
1,6,10,1,1,1,502.82,unfammale21.jpg
1,6,11,1,1,1,540.72,unfamfemale04.jpg
1,6,12,1,1,1,610.61,capture010 copy.jpg
1,6,13,1,1,1,448.53,capture013 copy.jpg
1,6,14,1,1,1,590.47,unfammale12.jpg
1,6,15,1,1,1,532.38,unfammale02.jpg
1,6,16,1,1,1,522.29,unfammale35.jpg
1,6,17,1,1,1,696.18,unfammale28.jpg
1,6,18,1,1,1,542.09,unfamfemale08.jpg
1,6,19,1,1,1,452.01,capture016 copy.jpg
1,6,20,1,1,1,513.91,unfamfemale21.jpg
1,6,21,1,1,1,559.85,unfamfemale20.jpg
1,6,22,1,1,1,557.76,unfamfemale01.jpg
1,6,23,1,1,1,819.68,unfamfemale38.jpg
1,6,24,1,1,1,569.57,unfamfemale17.jpg
1,6,25,1,1,1,567.45,unfamfemale37.jpg
1,6,26,1,1,1,637.41,capture011 copy.jpg
1,6,27,1,1,1,635.27,unfamfemale15.jpg
1,6,28,2,1,0,433.2,unfammale28.jpg
1,6,29,2,2,1,527.09,unfamfemale15.jpg
1,6,30,1,1,1,645.02,unfammale09.jpg
1,6,31,2,2,1,674.93,unfamfemale04.jpg
1,6,32,1,1,1,544.88,unfammale16.jpg
1,6,33,2,2,1,686.74,unfamfemale17.jpg
1,6,34,1,1,1,612.67,capture015 copy.jpg
1,6,35,1,1,1,490.61,unfamfemale10.jpg
1,6,36,1,1,1,480.48,unfamfemale03.jpg
1,6,37,1,1,1,534.43,capture002 copy.jpg
1,6,38,1,1,1,588.34,capture005 copy.jpg
1,6,39,2,0,0,0,capture013 copy.jpg
1,6,40,1,1,1,528.12,unfammale38.jpg
1,6,41,1,1,1,590.09,unfamfemale39.jpg
1,6,42,2,1,0,499.94,unfammale35.jpg
1,6,43,2,1,0,857.87,capture010 copy.jpg
1,6,44,1,1,1,575.82,unfammale25.jpg
1,6,45,1,1,1,653.68,capture012 copy.jpg
1,6,46,1,1,1,619.64,unfamfemale24.jpg
1,6,47,1,1,1,617.44,unfammale18.jpg
1,6,48,1,1,1,487.42,unfamfemale26.jpg
1,6,49,3,2,0,661.33,capture010 copy.jpg
1,6,50,2,1,0,619.29,unfammale08.jpg
1,6,51,2,1,0,697.15,unfammale12.jpg
1,6,52,2,1,0,679.11,unfammale38.jpg
1,6,53,2,1,0,709.03,unfammale25.jpg
1,6,54,2,2,1,634.93,capture005 copy.jpg
1,6,55,2,2,1,552.84,unfammale09.jpg
1,6,56,1,1,1,478.76,capture003 copy.jpg
1,6,57,1,1,1,492.65,capture020 copy.jpg
1,6,58,1,1,1,682.57,unfammale05.jpg
1,6,59,2,1,0,608.46,unfamfemale21.jpg
1,6,60,2,2,1,742.37,capture012 copy.jpg
1,6,61,2,2,1,756.32,unfammale21.jpg
1,6,62,1,1,1,674.22,unfammale33.jpg
1,6,63,3,1,0,600.07,unfammale28.jpg
1,6,64,2,1,0,702.01,unfamfemale06.jpg
1,6,65,2,2,1,803.97,unfammale39.jpg
1,6,66,3,2,0,697.87,unfammale08.jpg
1,6,67,3,2,0,799.78,unfammale25.jpg
1,6,68,3,2,0,773.65,unfammale12.jpg
1,6,69,3,1,0,603.59,capture021 copy.jpg
1,6,70,1,1,1,553.52,unfammale23.jpg
1,6,71,2,2,1,639.41,capture020 copy.jpg
1,6,72,2,2,1,669.34,capture016 copy.jpg
1,6,73,3,2,0,491.19,capture020 copy.jpg
1,6,74,3,1,0,609.12,unfamfemale32.jpg
1,6,75,2,1,0,679.06,unfamfemale39.jpg
1,6,76,1,1,1,612.99,unfamfemale05.jpg
1,6,77,2,2,1,746.89,unfammale14.jpg
1,6,78,1,1,1,696.79,unfamfemale40.jpg
1,6,79,1,1,1,1006.69,unfammale19.jpg
1,6,80,3,2,0,772.64,capture013 copy.jpg
1,6,81,3,2,0,610.55,unfammale21.jpg
1,6,82,2,1,0,584.46,unfamfemale26.jpg
1,6,83,2,2,1,622.37,unfamfemale37.jpg
1,6,84,2,2,1,708.28,unfammale23.jpg
1,6,85,2,2,1,850.17,unfammale05.jpg
1,6,86,2,1,0,712.11,unfammale18.jpg
1,6,87,3,2,0,1061.96,unfamfemale39.jpg
1,6,88,3,3,1,771.86,unfammale18.jpg
1,6,89,2,2,1,697.82,unfammale19.jpg
1,6,90,2,3,0,735.75,capture011 copy.jpg
1,6,91,3,2,0,773.6,unfamfemale06.jpg
1,6,92,3,3,1,747.57,unfammale19.jpg
1,6,93,3,3,1,633.45,unfammale23.jpg
1,6,94,2,2,1,647.34,capture002 copy.jpg
1,6,95,3,2,0,653.28,unfamfemale21.jpg
1,6,96,3,1,0,803.2,unfammale38.jpg
1,6,97,2,2,1,905.09,unfamfemale20.jpg
1,6,98,2,2,1,654.98,unfamfemale01.jpg
1,6,99,1,1,1,692.96,capture017 copy.jpg
1,6,100,2,2,1,698.87,unfammale33.jpg
1,6,101,2,1,0,712.73,unfammale16.jpg
1,6,102,3,2,0,662.68,capture005 copy.jpg
1,6,103,2,2,1,732.55,capture003 copy.jpg
1,6,104,3,3,1,770.52,capture002 copy.jpg
1,6,105,3,3,1,640.41,capture011 copy.jpg
1,6,106,2,2,1,710.34,unfamfemale24.jpg
1,6,107,2,2,1,836.2,unfamfemale10.jpg
1,6,108,2,2,1,802.16,unfamfemale03.jpg
1,6,109,2,2,1,680.07,unfamfemale40.jpg
1,6,110,2,2,1,517.96,unfamfemale05.jpg
1,6,111,3,2,0,787.88,unfammale39.jpg
1,6,112,3,2,0,577.8,unfamfemale20.jpg
1,6,113,2,2,1,650.35,unfamfemale38.jpg
1,6,114,2,2,1,776.3,capture015 copy.jpg
1,6,115,2,2,1,870.19,unfamfemale08.jpg
1,6,116,3,2,0,636.13,unfamfemale04.jpg
1,6,117,3,2,0,690.02,unfamfemale26.jpg
1,6,118,2,2,1,903.95,unfammale02.jpg
1,6,119,3,2,0,637.81,capture003 copy.jpg
1,6,120,2,2,1,675.77,capture017 copy.jpg
1,6,121,3,2,0,873.68,unfammale05.jpg
1,6,122,3,2,0,879.6,unfamfemale10.jpg
1,6,123,3,2,0,829.5,unfammale14.jpg
1,6,124,3,2,0,787.42,unfamfemale40.jpg
1,6,125,3,3,1,641.3,unfamfemale24.jpg
1,6,126,3,3,1,735.2,unfamfemale05.jpg
1,6,127,3,2,0,781.09,unfammale09.jpg
1,6,128,3,2,0,619.04,unfammale35.jpg
1,6,129,3,2,0,600.95,unfamfemale15.jpg
1,6,130,3,2,0,646.89,unfamfemale38.jpg
1,6,131,2,1,0,868.74,capture001 copy.jpg
1,6,132,3,3,1,858.69,unfamfemale08.jpg
1,6,133,3,3,1,736.59,unfamfemale01.jpg
1,6,134,3,3,1,598.48,unfammale02.jpg
1,6,135,3,2,0,748.41,unfamfemale17.jpg
1,6,136,3,2,0,730.36,capture001 copy.jpg
1,6,137,3,1,0,736.24,capture016 copy.jpg
1,6,138,3,2,0,838.16,unfammale16.jpg
1,6,139,3,3,1,676.1,capture017 copy.jpg
1,6,140,3,2,0,769.97,capture015 copy.jpg
1,6,141,3,2,0,871.91,capture012 copy.jpg
1,6,142,3,3,1,845.84,unfammale33.jpg
1,6,143,3,2,0,883.73,unfamfemale03.jpg
1,6,144,3,2,0,745.65,unfamfemale37.jpg
1,7,1,1,1,1,676.33,capture013 copy.jpg
1,7,2,1,1,1,586.3,unfammale08.jpg
1,7,3,1,1,1,408.22,capture017 copy.jpg
1,7,4,1,1,1,366.07,unfammale38.jpg
1,7,5,1,1,1,372.04,capture001 copy.jpg
1,7,6,1,1,1,513.95,unfamfemale01.jpg
1,7,7,1,1,1,463.81,unfamfemale05.jpg
1,7,8,1,1,1,469.78,unfammale12.jpg
1,7,9,1,1,1,491.69,unfamfemale24.jpg
1,7,10,1,1,1,601.6,unfamfemale04.jpg
1,7,11,2,1,0,543.51,capture001 copy.jpg
1,7,12,1,1,1,533.43,unfamfemale10.jpg
1,7,13,1,1,1,587.31,unfamfemale39.jpg
1,7,14,1,1,1,577.25,capture012 copy.jpg
1,7,15,2,1,0,527.13,capture017 copy.jpg
1,7,16,1,1,1,549.03,unfammale09.jpg
1,7,17,1,1,1,554.96,unfamfemale26.jpg
1,7,18,2,1,0,576.88,unfammale12.jpg
1,7,19,1,1,1,622.78,unfammale23.jpg
1,7,20,1,1,1,492.69,unfamfemale17.jpg
1,7,21,1,1,1,474.63,unfamfemale20.jpg
1,7,22,1,1,1,552.52,unfamfemale15.jpg
1,7,23,1,1,1,574.46,capture021 copy.jpg
1,7,24,1,1,1,548.31,unfamfemale37.jpg
1,7,25,1,1,1,410.27,capture010 copy.jpg
1,7,26,2,1,0,584.13,unfamfemale05.jpg
1,7,27,1,1,1,702.08,unfammale21.jpg
1,7,28,1,1,1,627.98,unfamfemale06.jpg
1,7,29,1,1,1,545.92,capture005 copy.jpg
1,7,30,1,1,1,583.8,unfamfemale08.jpg
1,7,31,1,1,1,533.72,unfammale19.jpg
1,7,32,1,1,1,459.66,unfammale18.jpg
1,7,33,1,1,1,417.53,unfamfemale40.jpg
1,7,34,1,1,1,543.48,unfammale02.jpg
1,7,35,1,1,1,517.34,unfammale05.jpg
1,7,36,1,1,1,571.3,capture016 copy.jpg
1,7,37,1,1,1,673.2,unfammale16.jpg
1,7,38,1,1,1,575.07,unfammale28.jpg
1,7,39,2,2,1,668.98,unfamfemale24.jpg
1,7,40,2,2,1,618.92,capture016 copy.jpg
1,7,41,1,1,1,632.83,unfamfemale21.jpg
1,7,42,2,2,1,550.78,unfamfemale37.jpg
1,7,43,2,1,0,740.61,capture013 copy.jpg
1,7,44,2,2,1,602.6,unfamfemale06.jpg
1,7,45,2,2,1,704.47,unfammale23.jpg
1,7,46,2,2,1,590.41,unfammale28.jpg
1,7,47,3,2,0,476.3,unfammale28.jpg
1,7,48,2,1,0,914.25,unfammale08.jpg
1,7,49,1,1,1,760.15,unfammale33.jpg
1,7,50,2,2,1,670.06,capture021 copy.jpg
1,7,51,1,2,0,611.98,unfamfemale38.jpg
1,7,52,1,1,1,633.85,capture015 copy.jpg
1,7,53,2,2,1,735.79,unfamfemale17.jpg
1,7,54,3,3,1,829.68,unfammale23.jpg
1,7,55,2,2,1,995.63,unfamfemale39.jpg
1,7,56,2,2,1,729.54,capture012 copy.jpg
1,7,57,2,2,1,887.41,unfammale02.jpg
1,7,58,2,2,1,685.34,capture005 copy.jpg
1,7,59,1,1,1,683.27,unfammale25.jpg
1,7,60,2,1,0,825.18,unfamfemale20.jpg
1,7,61,1,2,0,679.1,capture011 copy.jpg
1,7,62,3,3,1,725,capture005 copy.jpg
1,7,63,3,1,0,674.92,capture017 copy.jpg
1,7,64,3,2,0,808.82,unfamfemale39.jpg
1,7,65,1,2,0,678.74,capture002 copy.jpg
1,7,66,3,3,1,748.62,unfamfemale24.jpg
1,7,67,2,2,1,810.57,unfamfemale21.jpg
1,7,68,3,3,1,1032.43,unfamfemale17.jpg
1,7,69,1,1,1,694.37,capture020 copy.jpg
1,7,70,1,1,1,588.24,capture003 copy.jpg
1,7,71,1,1,1,658.17,unfamfemale03.jpg
1,7,72,1,1,1,592.12,unfammale14.jpg
1,7,73,2,2,1,758.02,unfammale21.jpg
1,7,74,2,2,1,755.91,unfammale16.jpg
1,7,75,2,2,1,689.86,unfammale33.jpg
1,7,76,2,2,1,727.72,unfammale14.jpg
1,7,77,1,1,1,741.65,unfammale35.jpg
1,7,78,2,1,0,891.59,unfamfemale26.jpg
1,7,79,3,2,0,769.5,unfammale14.jpg
1,7,80,1,1,1,847.36,unfamfemale32.jpg
1,7,81,2,2,1,725.27,capture002 copy.jpg
1,7,82,1,1,1,603.21,unfammale39.jpg
1,7,83,2,3,0,817.15,unfammale35.jpg
1,7,84,2,1,0,751.01,unfammale18.jpg
1,7,85,2,2,1,732.96,unfamfemale03.jpg
1,7,86,3,2,0,898.85,capture012 copy.jpg
1,7,87,3,3,1,816.8,unfammale35.jpg
1,7,88,3,3,1,814.68,capture002 copy.jpg
1,7,89,2,3,0,668.62,capture011 copy.jpg
1,7,90,2,2,1,802.54,capture015 copy.jpg
1,7,91,3,3,1,920.45,capture011 copy.jpg
1,7,92,3,2,0,974.36,capture013 copy.jpg
1,7,93,2,2,1,844.25,unfamfemale15.jpg
1,7,94,2,2,1,698.18,unfamfemale10.jpg
1,7,95,2,2,1,736.07,unfammale09.jpg
1,7,96,2,2,1,693.99,unfammale38.jpg
1,7,97,3,2,0,611.9,unfamfemale21.jpg
1,7,98,2,2,1,633.82,unfamfemale04.jpg
1,7,99,2,2,1,783.69,unfamfemale40.jpg
1,7,100,3,2,0,917.59,capture016 copy.jpg
1,7,101,3,2,0,947.52,unfammale18.jpg
1,7,102,2,2,1,673.43,unfamfemale32.jpg
1,7,103,2,1,0,815.38,unfammale19.jpg
1,7,104,3,1,0,717.29,unfamfemale26.jpg
1,7,105,2,1,0,643.19,capture020 copy.jpg
1,7,106,2,1,0,593.11,unfamfemale08.jpg
1,7,107,3,2,0,646.99,unfammale38.jpg
1,7,108,2,2,1,828.92,unfammale05.jpg
1,7,109,3,2,0,658.85,unfammale09.jpg
1,7,110,3,2,0,768.75,capture020 copy.jpg
1,7,111,3,1,0,982.67,capture001 copy.jpg
1,7,112,2,2,1,884.52,unfamfemale38.jpg
1,7,113,2,1,0,930.45,unfamfemale01.jpg
1,7,114,3,2,0,776.39,unfamfemale05.jpg
1,7,115,2,1,0,902.25,capture010 copy.jpg
1,7,116,3,1,0,732.2,unfammale12.jpg
1,7,117,3,2,0,802.14,unfamfemale20.jpg
1,7,118,3,1,0,936.06,unfammale08.jpg
1,7,119,3,3,1,781.96,unfamfemale04.jpg
1,7,120,3,3,1,683.88,unfamfemale10.jpg
1,7,121,3,2,0,796.47,unfammale19.jpg
1,7,122,2,2,1,770.35,unfammale25.jpg
1,7,123,2,2,1,816.24,capture003 copy.jpg
1,7,124,3,2,0,854.2,unfammale05.jpg
1,7,125,3,3,1,860.1,unfammale21.jpg
1,7,126,3,2,0,841.99,capture021 copy.jpg
1,7,127,3,2,0,719.94,unfamfemale37.jpg
1,7,128,3,2,0,717.82,unfammale16.jpg
1,7,129,3,3,1,731.76,unfamfemale06.jpg
1,7,130,3,3,1,857.66,unfammale25.jpg
1,7,131,2,3,0,735.58,unfammale39.jpg
1,7,132,3,3,1,669.44,unfammale39.jpg
1,7,133,3,3,1,779.34,capture010 copy.jpg
1,7,134,3,3,1,705.32,unfamfemale38.jpg
1,7,135,3,3,1,719.21,unfamfemale03.jpg
1,7,136,3,3,1,677.13,unfamfemale32.jpg
1,7,137,3,3,1,619,unfamfemale15.jpg
1,7,138,3,3,1,544.96,capture015 copy.jpg
1,7,139,3,3,1,518.87,unfamfemale40.jpg
1,7,140,3,3,1,756.72,capture003 copy.jpg
1,7,141,3,3,1,554.7,unfamfemale01.jpg
1,7,142,3,3,1,544.61,unfammale33.jpg
1,7,143,3,3,1,534.48,unfamfemale08.jpg
1,7,144,3,3,1,652.42,unfammale02.jpg
1,8,1,1,1,1,553.36,unfamfemale05.jpg
1,8,2,1,1,1,423.28,unfamfemale40.jpg
1,8,3,1,1,1,453.21,unfammale09.jpg
1,8,4,1,1,1,483.12,unfammale39.jpg
1,8,5,1,1,1,361.02,unfammale08.jpg
1,8,6,1,1,1,470.94,capture015 copy.jpg
1,8,7,1,1,1,532.82,unfamfemale10.jpg
1,8,8,1,1,1,610.77,unfamfemale38.jpg
1,8,9,1,1,1,688.62,unfamfemale04.jpg
1,8,10,1,1,1,622.59,capture021 copy.jpg
1,8,11,1,1,1,684.47,unfammale18.jpg
1,8,12,1,1,1,650.4,unfamfemale37.jpg
1,8,13,1,1,1,664.29,unfammale33.jpg
1,8,14,1,1,1,662.19,unfamfemale08.jpg
1,8,15,1,1,1,612.14,unfammale35.jpg
1,8,16,1,1,1,674.04,capture005 copy.jpg
1,8,17,1,1,1,919.94,unfammale05.jpg
1,8,18,1,1,1,957.83,capture010 copy.jpg
1,8,19,1,1,1,803.77,unfammale38.jpg
1,8,20,2,2,1,793.7,unfamfemale05.jpg
1,8,21,1,1,1,655.59,unfammale16.jpg
1,8,22,1,1,1,813.5,unfamfemale21.jpg
1,8,23,1,1,1,875.44,capture003 copy.jpg
1,8,24,1,1,1,729.35,unfamfemale26.jpg
1,8,25,1,1,1,695.22,unfammale19.jpg
1,8,26,2,2,1,757.11,unfamfemale26.jpg
1,8,27,2,2,1,691.04,unfammale38.jpg
1,8,28,1,1,1,608.99,unfamfemale03.jpg
1,8,29,1,1,1,870.9,unfamfemale06.jpg
1,8,30,1,1,1,700.81,unfammale14.jpg
1,8,31,1,1,1,730.68,unfammale02.jpg
1,8,32,2,2,1,680.64,unfamfemale37.jpg
1,8,33,3,2,0,750.55,unfammale38.jpg
1,8,34,2,2,1,884.44,capture021 copy.jpg
1,8,35,2,2,1,642.34,unfamfemale04.jpg
1,8,36,3,3,1,728.23,capture021 copy.jpg
1,8,37,2,2,1,734.19,unfammale16.jpg
1,8,38,2,2,1,796.11,unfammale08.jpg
1,8,39,2,2,1,953.95,unfamfemale21.jpg
1,8,40,2,2,1,791.93,unfammale14.jpg
1,8,41,1,2,0,773.79,unfammale28.jpg
1,8,42,1,1,1,683.75,unfammale12.jpg
1,8,43,1,1,1,713.67,unfamfemale17.jpg
1,8,44,3,2,0,727.58,unfamfemale26.jpg
1,8,45,2,1,0,949.44,unfammale09.jpg
1,8,46,1,1,1,659.41,unfamfemale24.jpg
1,8,47,2,2,1,969.32,unfammale33.jpg
1,8,48,2,2,1,759.2,capture010 copy.jpg
1,8,49,2,2,1,733.13,capture005 copy.jpg
1,8,50,1,2,0,899.05,unfammale25.jpg
1,8,51,1,1,1,632.94,unfammale23.jpg
1,8,52,1,1,1,710.88,capture013 copy.jpg
1,8,53,2,1,0,860.73,unfammale18.jpg
1,8,54,2,2,1,874.68,unfamfemale08.jpg
1,8,55,2,2,1,792.56,unfammale28.jpg
1,8,56,2,2,1,670.46,unfammale25.jpg
1,8,57,1,1,1,620.4,capture002 copy.jpg
1,8,58,1,1,1,682.31,capture001 copy.jpg
1,8,59,2,2,1,768.2,unfammale02.jpg
1,8,60,3,3,1,566.11,unfammale02.jpg
1,8,61,1,1,1,804.08,unfamfemale32.jpg
1,8,62,1,2,0,801.99,capture011 copy.jpg
1,8,63,1,1,1,671.9,unfamfemale20.jpg
1,8,64,2,2,1,773.8,unfamfemale10.jpg
1,8,65,3,3,1,795.73,unfammale14.jpg
1,8,66,3,3,1,689.59,unfamfemale04.jpg
1,8,67,1,1,1,879.49,unfamfemale39.jpg
1,8,68,2,2,1,877.46,capture013 copy.jpg
1,8,69,1,1,1,891.34,unfamfemale01.jpg
1,8,70,2,2,1,545.28,unfamfemale01.jpg
1,8,71,1,1,1,743.19,unfamfemale15.jpg
1,8,72,3,3,1,813.11,unfammale33.jpg
1,8,73,1,1,1,627.01,capture017 copy.jpg
1,8,74,1,1,1,624.92,capture020 copy.jpg
1,8,75,1,1,1,670.79,capture016 copy.jpg
1,8,76,3,1,0,836.75,unfammale16.jpg
1,8,77,2,2,1,922.65,unfammale19.jpg
1,8,78,2,2,1,944.56,unfamfemale17.jpg
1,8,79,2,2,1,830.47,unfammale35.jpg
1,8,80,1,1,1,988.4,capture012 copy.jpg
1,8,81,2,1,0,666.31,unfammale39.jpg
1,8,82,3,3,1,808.22,unfammale08.jpg
1,8,83,3,2,0,1038.14,unfammale18.jpg
1,8,84,1,2,0,860.05,unfammale21.jpg
1,8,85,2,2,1,665.96,unfammale21.jpg
1,8,86,2,3,0,911.82,capture001 copy.jpg
1,8,87,2,2,1,989.75,capture003 copy.jpg
1,8,88,2,2,1,859.68,capture012 copy.jpg
1,8,89,3,3,1,753.58,unfammale19.jpg
1,8,90,3,3,1,695.51,unfamfemale10.jpg
1,8,91,2,2,1,781.37,unfamfemale20.jpg
1,8,92,2,2,1,723.33,unfamfemale24.jpg
1,8,93,3,3,1,521.24,unfamfemale24.jpg
1,8,94,3,2,0,759.15,unfammale09.jpg
1,8,95,3,2,0,829.03,unfamfemale01.jpg
1,8,96,2,2,1,730.98,capture020 copy.jpg
1,8,97,2,2,1,832.88,unfamfemale03.jpg
1,8,98,2,2,1,854.79,unfamfemale38.jpg
1,8,99,2,2,1,644.72,unfammale23.jpg
1,8,100,3,2,0,802.63,unfamfemale21.jpg
1,8,101,2,2,1,1024.55,capture015 copy.jpg
1,8,102,2,2,1,1046.46,unfamfemale06.jpg
1,8,103,2,2,1,724.37,unfamfemale15.jpg
1,8,104,2,2,1,850.25,unfamfemale32.jpg
1,8,105,2,3,0,768.19,unfamfemale39.jpg
1,8,106,3,2,0,974.06,unfamfemale37.jpg
1,8,107,2,3,0,771.99,capture011 copy.jpg
1,8,108,3,3,1,681.86,capture013 copy.jpg
1,8,109,3,3,1,647.82,unfammale21.jpg
1,8,110,3,3,1,629.75,unfamfemale20.jpg
1,8,111,2,2,1,755.59,capture002 copy.jpg
1,8,112,3,3,1,777.57,capture020 copy.jpg
1,8,113,3,3,1,727.47,unfammale35.jpg
1,8,114,3,2,0,837.34,unfamfemale05.jpg
1,8,115,3,3,1,699.24,capture002 copy.jpg
1,8,116,3,3,1,681.21,capture015 copy.jpg
1,8,117,2,3,0,591.08,capture017 copy.jpg
1,8,118,2,3,0,821.05,capture016 copy.jpg
1,8,119,2,2,1,762.92,unfamfemale40.jpg
1,8,120,3,3,1,728.83,capture010 copy.jpg
1,8,121,3,3,1,686.76,unfamfemale38.jpg
1,8,122,3,3,1,700.69,unfamfemale17.jpg
1,8,123,3,3,1,938.6,capture003 copy.jpg
1,8,124,2,2,1,848.51,unfammale12.jpg
1,8,125,3,2,0,886.43,unfammale39.jpg
1,8,126,3,3,1,804.32,unfamfemale39.jpg
1,8,127,3,3,1,650.2,unfamfemale32.jpg
1,8,128,3,3,1,592.16,unfammale12.jpg
1,8,129,3,3,1,638.03,capture001 copy.jpg
1,8,130,3,3,1,651.99,unfammale23.jpg
1,8,131,3,3,1,609.89,capture005 copy.jpg
1,8,132,3,3,1,775.75,unfamfemale15.jpg
1,8,133,2,2,1,917.72,unfammale05.jpg
1,8,134,3,3,1,515.59,unfammale05.jpg
1,8,135,3,3,1,737.53,capture017 copy.jpg
1,8,136,3,3,1,711.45,capture011 copy.jpg
1,8,137,3,2,0,829.34,unfammale28.jpg
1,8,138,3,3,1,635.24,capture016 copy.jpg
1,8,139,3,3,1,825.16,unfamfemale40.jpg
1,8,140,3,2,0,791.07,unfammale25.jpg
1,8,141,3,3,1,828.99,capture012 copy.jpg
1,8,142,3,3,1,754.89,unfamfemale08.jpg
1,8,143,3,3,1,640.83,unfamfemale06.jpg
1,8,144,3,3,1,654.69,unfamfemale03.jpg
1,9,1,1,1,1,663.65,unfamfemale10.jpg
1,9,2,1,1,1,501.55,capture013 copy.jpg
1,9,3,1,1,1,651.42,unfammale12.jpg
1,9,4,1,1,1,681.38,capture012 copy.jpg
1,9,5,2,2,1,655.27,capture012 copy.jpg
1,9,6,1,1,1,733.17,capture015 copy.jpg
1,9,7,1,1,1,571.09,unfamfemale40.jpg
1,9,8,1,1,1,649.02,unfamfemale37.jpg
1,9,9,1,1,1,734.9,unfamfemale08.jpg
1,9,10,1,1,1,772.83,unfamfemale15.jpg
1,9,11,2,2,1,858.75,unfamfemale10.jpg
1,9,12,1,1,1,616.62,capture021 copy.jpg
1,9,13,1,1,1,726.58,unfamfemale21.jpg
1,9,14,1,1,1,588.5,unfammale28.jpg
1,9,15,2,2,1,898.36,unfamfemale15.jpg
1,9,16,3,2,0,640.27,unfamfemale10.jpg
1,9,17,1,1,1,742.24,unfamfemale32.jpg
1,9,18,1,1,1,708.14,capture010 copy.jpg
1,9,19,1,1,1,690,unfammale33.jpg
1,9,20,1,1,1,767.89,unfamfemale24.jpg
1,9,21,1,1,1,629.86,unfammale23.jpg
1,9,22,1,1,1,667.73,capture002 copy.jpg
1,9,23,1,1,1,721.68,unfamfemale01.jpg
1,9,24,2,1,0,727.62,unfammale28.jpg
1,9,25,2,2,1,805.53,unfamfemale21.jpg
1,9,26,2,1,0,755.44,unfamfemale40.jpg
1,9,27,1,1,1,1025.3,unfammale14.jpg
1,9,28,1,1,1,783.26,unfamfemale04.jpg
1,9,29,1,1,1,749.17,capture011 copy.jpg
1,9,30,1,1,1,859.04,unfamfemale17.jpg
1,9,31,1,1,1,688.99,unfamfemale26.jpg
1,9,32,3,2,0,766.89,unfamfemale21.jpg
1,9,33,1,1,1,612.76,capture020 copy.jpg
1,9,34,2,2,1,850.69,capture010 copy.jpg
1,9,35,1,1,1,616.58,unfamfemale05.jpg
1,9,36,1,2,0,838.55,unfamfemale20.jpg
1,9,37,2,2,1,748.46,unfamfemale26.jpg
1,9,38,2,2,1,762.32,unfamfemale17.jpg
1,9,39,1,1,1,719.93,unfammale09.jpg
1,9,40,2,2,1,694.19,unfamfemale24.jpg
1,9,41,1,2,0,828.09,capture005 copy.jpg
1,9,42,2,2,1,697.97,capture020 copy.jpg
1,9,43,1,2,0,831.9,unfamfemale39.jpg
1,9,44,2,2,1,765.77,unfamfemale37.jpg
1,9,45,1,1,1,659.76,capture003 copy.jpg
1,9,46,2,2,1,913.6,capture015 copy.jpg
1,9,47,1,1,1,695.5,unfammale19.jpg
1,9,48,1,1,1,893.47,capture001 copy.jpg
1,9,49,2,2,1,923.41,unfammale12.jpg
1,9,50,1,1,1,793.32,unfammale02.jpg
1,9,51,3,3,1,823.21,unfamfemale40.jpg
1,9,52,1,1,1,621.11,capture017 copy.jpg
1,9,53,1,1,1,931.05,unfammale16.jpg
1,9,54,2,2,1,888.91,unfammale02.jpg
1,9,55,2,2,1,686.84,unfammale19.jpg
1,9,56,1,2,0,788.75,unfammale35.jpg
1,9,57,2,2,1,738.7,unfamfemale01.jpg
1,9,58,1,1,1,736.61,unfammale21.jpg
1,9,59,2,2,1,526.47,unfammale21.jpg
1,9,60,1,1,1,836.39,unfamfemale06.jpg
1,9,61,1,1,1,698.33,unfammale39.jpg
1,9,62,1,1,1,592.22,capture016 copy.jpg
1,9,63,2,2,1,846.17,capture021 copy.jpg
1,9,64,1,1,1,708.04,unfamfemale03.jpg
1,9,65,2,2,1,753.97,capture005 copy.jpg
1,9,66,2,2,1,695.87,unfamfemale04.jpg
1,9,67,2,2,1,877.76,capture001 copy.jpg
1,9,68,2,2,1,958.37,capture003 copy.jpg
1,9,69,2,2,1,772.31,unfammale14.jpg
1,9,70,3,2,0,778.18,capture010 copy.jpg
1,9,71,2,2,1,768.13,capture016 copy.jpg
1,9,72,3,3,1,838.01,capture020 copy.jpg
1,9,73,2,2,1,811.92,unfamfemale32.jpg
1,9,74,1,1,1,625.87,unfammale08.jpg
1,9,75,3,2,0,623.78,unfammale02.jpg
1,9,76,3,2,0,669.65,unfammale21.jpg
1,9,77,2,3,0,779.6,unfammale08.jpg
1,9,78,3,3,1,681.48,unfammale08.jpg
1,9,79,2,2,1,887.41,unfammale33.jpg
1,9,80,3,3,1,813.33,capture021 copy.jpg
1,9,81,1,1,1,1035.19,unfamfemale38.jpg
1,9,82,2,2,1,897.13,unfamfemale08.jpg
1,9,83,2,2,1,815.07,capture002 copy.jpg
1,9,84,2,2,1,908.94,unfamfemale03.jpg
1,9,85,1,1,1,674.88,unfammale38.jpg
1,9,86,3,2,0,728.81,capture016 copy.jpg
1,9,87,2,2,1,782.72,unfamfemale06.jpg
1,9,88,3,2,0,980.58,unfamfemale17.jpg
1,9,89,2,2,1,922.5,capture017 copy.jpg
1,9,90,3,3,1,824.41,unfamfemale01.jpg
1,9,91,3,3,1,702.36,unfamfemale08.jpg
1,9,92,3,3,1,1020.28,unfammale12.jpg
1,9,93,2,2,1,986.16,capture013 copy.jpg
1,9,94,1,1,1,744.05,unfammale05.jpg
1,9,95,1,1,1,637.97,unfammale25.jpg
1,9,96,2,2,1,771.88,unfamfemale05.jpg
1,9,97,1,1,1,641.83,unfammale18.jpg
1,9,98,2,3,0,703.69,unfamfemale38.jpg
1,9,99,2,3,0,685.65,unfammale18.jpg
1,9,100,2,2,1,883.51,unfammale39.jpg
1,9,101,3,2,0,857.44,unfamfemale37.jpg
1,9,102,2,2,1,959.4,unfamfemale20.jpg
1,9,103,3,3,1,661.31,capture005 copy.jpg
1,9,104,3,2,0,867.18,unfammale28.jpg
1,9,105,3,2,0,777.07,capture012 copy.jpg
1,9,106,2,1,0,958.99,unfammale09.jpg
1,9,107,3,3,1,972.91,capture001 copy.jpg
1,9,108,2,2,1,834.82,unfammale35.jpg
1,9,109,3,3,1,696.77,unfamfemale06.jpg
1,9,110,3,3,1,822.69,capture013 copy.jpg
1,9,111,2,1,0,820.6,unfammale16.jpg
1,9,112,3,2,0,674.46,unfamfemale26.jpg
1,9,113,2,2,1,744.42,unfammale23.jpg
1,9,114,3,2,0,798.33,unfammale16.jpg
1,9,115,3,3,1,692.2,capture017 copy.jpg
1,9,116,3,3,1,690.11,unfamfemale32.jpg
1,9,117,3,3,1,624.07,unfammale35.jpg
1,9,118,3,2,0,757.98,capture002 copy.jpg
1,9,119,3,2,0,763.88,capture003 copy.jpg
1,9,120,3,2,0,625.8,unfammale09.jpg
1,9,121,2,2,1,687.72,unfammale25.jpg
1,9,122,2,2,1,573.62,unfammale38.jpg
1,9,123,3,2,0,763.54,unfammale19.jpg
1,9,124,3,3,1,689.39,unfamfemale24.jpg
1,9,125,3,2,0,823.36,capture015 copy.jpg
1,9,126,3,2,0,669.23,unfamfemale20.jpg
1,9,127,3,2,0,691.18,unfammale38.jpg
1,9,128,3,3,1,625.09,unfammale33.jpg
1,9,129,3,3,1,550.98,unfammale25.jpg
1,9,130,2,3,0,532.9,capture011 copy.jpg
1,9,131,2,3,0,594.82,unfamfemale39.jpg
1,9,132,3,3,1,536.72,unfammale23.jpg
1,9,133,3,2,0,766.59,unfamfemale05.jpg
1,9,134,3,3,1,588.56,unfammale18.jpg
1,9,135,3,3,1,634.41,unfamfemale38.jpg
1,9,136,3,3,1,632.29,unfamfemale03.jpg
1,9,137,2,3,0,654.3,unfammale05.jpg
1,9,138,3,3,1,524.21,unfammale05.jpg
1,9,139,3,2,0,754.09,unfammale39.jpg
1,9,140,3,3,1,728.03,unfamfemale39.jpg
1,9,141,3,3,1,861.95,unfamfemale04.jpg
1,9,142,3,3,1,699.86,capture011 copy.jpg
1,9,143,3,3,1,705.76,unfamfemale15.jpg
1,9,144,3,3,1,903.69,unfammale14.jpg
1,10,1,1,1,1,560.09,unfamfemale39.jpg
1,10,2,1,1,1,725.98,unfammale33.jpg
1,10,3,1,1,1,667.88,unfammale12.jpg
1,10,4,1,1,1,513.82,unfammale23.jpg
1,10,5,1,1,1,511.69,unfamfemale06.jpg
1,10,6,1,1,1,733.64,unfammale05.jpg
1,10,7,1,1,1,523.55,capture017 copy.jpg
1,10,8,1,1,1,633.47,capture002 copy.jpg
1,10,9,1,1,1,575.38,unfamfemale24.jpg
1,10,10,2,2,1,677.28,capture002 copy.jpg
1,10,11,1,1,1,515.2,capture001 copy.jpg
1,10,12,2,1,0,713.08,unfamfemale06.jpg
1,10,13,1,1,1,574.99,unfamfemale05.jpg
1,10,14,1,1,1,628.93,unfamfemale40.jpg
1,10,15,1,1,1,562.85,capture016 copy.jpg
1,10,16,1,1,1,744.76,unfamfemale03.jpg
1,10,17,2,2,1,750.67,capture001 copy.jpg
1,10,18,1,1,1,692.59,capture012 copy.jpg
1,10,19,1,1,1,858.5,unfamfemale01.jpg
1,10,20,1,1,1,848.39,unfamfemale17.jpg
1,10,21,3,3,1,846.32,capture001 copy.jpg
1,10,22,1,1,1,668.2,unfamfemale32.jpg
1,10,23,1,1,1,650.09,unfammale08.jpg
1,10,24,1,1,1,896.06,capture010 copy.jpg
1,10,25,1,1,1,773.92,unfammale21.jpg
1,10,26,1,1,1,659.81,capture011 copy.jpg
1,10,27,2,2,1,817.77,unfammale33.jpg
1,10,28,1,1,1,943.71,unfamfemale20.jpg
1,10,29,2,2,1,741.54,unfamfemale05.jpg
1,10,30,2,2,1,787.49,capture016 copy.jpg
1,10,31,1,1,1,793.44,unfammale28.jpg
1,10,32,1,1,1,535.3,capture003 copy.jpg
1,10,33,2,2,1,693.2,unfammale23.jpg
1,10,34,1,1,1,683.16,unfammale09.jpg
1,10,35,1,1,1,641.08,capture005 copy.jpg
1,10,36,2,2,1,694.99,unfamfemale17.jpg
1,10,37,1,1,1,612.89,unfammale16.jpg
1,10,38,2,3,0,658.79,capture005 copy.jpg
1,10,39,1,2,0,800.69,unfamfemale15.jpg
1,10,40,1,1,1,654.64,unfamfemale37.jpg
1,10,41,2,2,1,844.55,capture012 copy.jpg
1,10,42,1,1,1,618.45,unfammale39.jpg
1,10,43,2,2,1,784.34,capture011 copy.jpg
1,10,44,2,2,1,766.29,unfammale39.jpg
1,10,45,1,1,1,636.15,unfammale35.jpg
1,10,46,2,2,1,746.06,unfamfemale03.jpg
1,10,47,2,2,1,983.99,unfamfemale20.jpg
1,10,48,2,2,1,813.9,unfamfemale32.jpg
1,10,49,3,3,1,819.81,unfamfemale03.jpg
1,10,50,2,1,0,697.71,unfamfemale39.jpg
1,10,51,1,1,1,967.65,unfamfemale08.jpg
1,10,52,2,1,0,645.58,unfammale05.jpg
1,10,53,2,2,1,691.44,unfammale16.jpg
1,10,54,2,2,1,697.4,capture017 copy.jpg
1,10,55,1,1,1,943.26,capture015 copy.jpg
1,10,56,1,1,1,605.2,unfammale18.jpg
1,10,57,2,2,1,787.09,capture010 copy.jpg
1,10,58,1,1,1,641.05,unfammale19.jpg
1,10,59,1,1,1,654.96,unfamfemale04.jpg
1,10,60,2,2,1,716.87,unfammale19.jpg
1,10,61,2,2,1,698.78,unfamfemale15.jpg
1,10,62,1,2,0,776.69,unfamfemale38.jpg
1,10,63,2,2,1,638.61,capture003 copy.jpg
1,10,64,2,2,1,804.52,unfamfemale08.jpg
1,10,65,1,1,1,610.41,unfammale38.jpg
1,10,66,1,1,1,712.34,capture013 copy.jpg
1,10,67,3,3,1,806.26,unfamfemale39.jpg
1,10,68,3,3,1,1004.17,capture003 copy.jpg
1,10,69,1,1,1,682.08,unfamfemale26.jpg
1,10,70,2,2,1,679.99,unfammale21.jpg
1,10,71,2,3,0,861.86,capture013 copy.jpg
1,10,72,3,3,1,691.78,unfamfemale05.jpg
1,10,73,3,3,1,801.71,capture012 copy.jpg
1,10,74,3,2,0,903.6,unfamfemale20.jpg
1,10,75,2,1,0,869.55,unfammale28.jpg
1,10,76,2,1,0,627.46,unfammale18.jpg
1,10,77,1,1,1,585.33,unfamfemale21.jpg
1,10,78,3,1,0,791.28,capture002 copy.jpg
1,10,79,2,2,1,749.19,unfammale09.jpg
1,10,80,3,2,0,427.08,unfammale09.jpg
1,10,81,3,2,0,801.02,unfammale18.jpg
1,10,82,2,2,1,742.89,unfamfemale24.jpg
1,10,83,3,1,0,756.83,capture016 copy.jpg
1,10,84,3,3,1,770.72,capture017 copy.jpg
1,10,85,1,2,0,680.6,unfammale25.jpg
1,10,86,2,2,1,894.57,unfamfemale01.jpg
1,10,87,2,2,1,756.49,unfammale35.jpg
1,10,88,1,1,1,626.37,capture021 copy.jpg
1,10,89,2,2,1,816.29,unfamfemale38.jpg
1,10,90,1,2,0,910.19,unfammale14.jpg
1,10,91,3,3,1,820.08,unfammale21.jpg
1,10,92,1,1,1,689.99,unfamfemale10.jpg
1,10,93,3,2,0,863.89,unfamfemale38.jpg
1,10,94,2,2,1,717.84,capture021 copy.jpg
1,10,95,2,2,1,731.74,unfamfemale21.jpg
1,10,96,2,3,0,601.69,unfammale14.jpg
1,10,97,2,3,0,719.6,unfammale25.jpg
1,10,98,3,3,1,869.52,unfammale39.jpg
1,10,99,3,3,1,835.43,unfamfemale32.jpg
1,10,100,1,2,0,857.29,unfammale02.jpg
1,10,101,3,0,0,0,capture005 copy.jpg
1,10,102,2,2,1,877.14,unfamfemale40.jpg
1,10,103,3,3,1,851.05,capture010 copy.jpg
1,10,104,3,3,1,784.98,capture011 copy.jpg
1,10,105,2,2,1,854.89,unfammale12.jpg
1,10,106,3,3,1,796.77,unfamfemale21.jpg
1,10,107,2,3,0,706.72,unfammale02.jpg
1,10,108,3,3,1,904.63,unfammale33.jpg
1,10,109,2,2,1,822.54,capture015 copy.jpg
1,10,110,3,3,1,716.45,capture013 copy.jpg
1,10,111,3,3,1,794.36,unfamfemale40.jpg
1,10,112,2,2,1,744.27,unfamfemale04.jpg
1,10,113,2,2,1,806.19,unfamfemale37.jpg
1,10,114,3,3,1,796.07,unfammale12.jpg
1,10,115,1,1,1,778.01,capture020 copy.jpg
1,10,116,3,1,0,759.92,unfammale16.jpg
1,10,117,2,2,1,885.84,unfammale38.jpg
1,10,118,3,3,1,563.73,unfammale38.jpg
1,10,119,2,3,0,825.61,capture020 copy.jpg
1,10,120,3,3,1,895.57,unfammale25.jpg
1,10,121,3,3,1,829.43,unfamfemale01.jpg
1,10,122,3,3,1,715.33,unfammale02.jpg
1,10,123,2,2,1,793.29,unfamfemale26.jpg
1,10,124,3,3,1,751.21,capture021 copy.jpg
1,10,125,3,3,1,693.09,unfamfemale37.jpg
1,10,126,3,2,0,827.04,unfamfemale06.jpg
1,10,127,2,2,1,760.95,unfamfemale10.jpg
1,10,128,3,3,1,790.87,unfamfemale15.jpg
1,10,129,3,3,1,820.76,unfammale14.jpg
1,10,130,3,2,0,722.68,unfammale28.jpg
1,10,131,3,3,1,808.58,unfammale23.jpg
1,10,132,3,3,1,862.51,unfamfemale10.jpg
1,10,133,3,2,0,980.41,unfamfemale08.jpg
1,10,134,2,2,1,850.33,unfammale08.jpg
1,10,135,3,3,1,976.2,unfamfemale17.jpg
1,10,136,3,3,1,854.12,unfamfemale04.jpg
1,10,137,3,3,1,884.07,unfamfemale24.jpg
1,10,138,3,3,1,681.95,capture020 copy.jpg
1,10,139,3,3,1,831.89,unfammale08.jpg
1,10,140,3,3,1,877.75,unfammale35.jpg
1,10,141,3,3,1,731.7,capture015 copy.jpg
1,10,142,3,3,1,625.62,unfammale05.jpg
1,10,143,3,3,1,975.52,unfammale19.jpg
1,10,144,3,3,1,701.44,unfamfemale26.jpg
2,1,1,1,0,0,0,capture005 copy.jpg
2,1,2,1,0,0,0,unfamfemale04.jpg
2,1,3,1,0,0,0,unfammale38.jpg
2,1,4,1,0,0,0,capture017 copy.jpg
2,1,5,1,0,0,0,unfamfemale26.jpg
2,1,6,1,0,0,0,capture001 copy.jpg
2,1,7,1,0,0,0,capture021 copy.jpg
2,1,8,1,0,0,0,unfamfemale01.jpg
2,1,9,1,0,0,0,capture020 copy.jpg
2,1,10,1,0,0,0,capture016 copy.jpg
2,1,11,1,0,0,0,unfammale08.jpg
2,1,12,1,0,0,0,capture013 copy.jpg
2,1,13,2,0,0,0,unfammale38.jpg
2,1,14,1,0,0,0,unfammale14.jpg
2,1,15,1,0,0,0,unfamfemale40.jpg
2,1,16,1,0,0,0,unfamfemale15.jpg
2,1,17,2,0,0,0,capture016 copy.jpg
2,1,18,1,0,0,0,capture015 copy.jpg
2,1,19,1,0,0,0,unfammale12.jpg
2,1,20,1,0,0,0,capture003 copy.jpg
2,1,21,1,0,0,0,capture011 copy.jpg
2,1,22,1,0,0,0,unfammale02.jpg
2,1,23,1,0,0,0,unfamfemale10.jpg
2,1,24,1,0,0,0,unfamfemale21.jpg
2,1,25,1,0,0,0,unfamfemale37.jpg
2,1,26,2,0,0,0,capture001 copy.jpg
2,1,27,2,0,0,0,unfammale12.jpg
2,1,28,2,0,0,0,capture017 copy.jpg
2,1,29,1,0,0,0,unfammale39.jpg
2,1,30,2,0,0,0,capture005 copy.jpg
2,1,31,1,0,0,0,capture002 copy.jpg
2,1,32,1,0,0,0,unfamfemale32.jpg
2,1,33,2,2,1,710.28,unfammale08.jpg
2,1,34,1,1,1,820.19,unfamfemale05.jpg
2,1,35,3,3,1,938.06,unfammale38.jpg
2,1,36,1,1,1,722.58,unfammale21.jpg
2,1,37,1,1,1,659.12,unfammale05.jpg
2,1,38,1,2,0,1171.68,capture012 copy.jpg
2,1,39,1,1,1,756.25,unfammale23.jpg
2,1,40,2,2,1,866.11,unfammale05.jpg
2,1,41,1,1,1,658.62,unfammale35.jpg
2,1,42,1,1,1,672.28,unfamfemale17.jpg
2,1,43,2,2,1,798.39,capture011 copy.jpg
2,1,44,3,3,1,708.27,capture017 copy.jpg
2,1,45,2,1,0,626.11,capture002 copy.jpg
2,1,46,1,1,1,714.6,unfamfemale20.jpg
2,1,47,2,1,0,424.54,unfamfemale20.jpg
2,1,48,2,1,0,1054.4,capture013 copy.jpg
2,1,49,2,1,0,676.3,capture021 copy.jpg
2,1,50,2,2,1,834.15,unfamfemale01.jpg
2,1,51,1,1,1,728.01,unfamfemale08.jpg
2,1,52,1,1,1,736.59,unfammale19.jpg
2,1,53,2,2,1,798.41,capture015 copy.jpg
2,1,54,2,2,1,844.33,unfamfemale05.jpg
2,1,55,1,1,1,700.88,unfammale16.jpg
2,1,56,1,1,1,930.75,unfamfemale06.jpg
2,1,57,3,3,1,824.58,capture016 copy.jpg
2,1,58,2,2,1,857.09,unfamfemale06.jpg
2,1,59,3,3,1,687.03,capture021 copy.jpg
2,1,60,1,1,1,791.53,unfamfemale24.jpg
2,1,61,1,1,1,664.08,unfamfemale39.jpg
2,1,62,2,2,1,693.98,unfamfemale17.jpg
2,1,63,2,1,0,715.87,unfamfemale10.jpg
2,1,64,2,2,1,993.71,unfammale02.jpg
2,1,65,2,1,0,738.3,unfamfemale08.jpg
2,1,66,2,1,0,848.12,capture003 copy.jpg
2,1,67,1,1,1,968.72,unfammale33.jpg
2,1,68,1,2,0,793.22,unfammale18.jpg
2,1,69,3,2,0,695.11,unfammale12.jpg
2,1,70,1,1,1,631.66,unfamfemale38.jpg
2,1,71,1,1,1,645.53,unfamfemale03.jpg
2,1,72,2,1,0,707.4,unfammale19.jpg
2,1,73,1,1,1,691.91,unfammale25.jpg
2,1,74,2,2,1,697.79,unfammale35.jpg
2,1,75,3,2,0,679.69,capture013 copy.jpg
2,1,76,2,1,0,701.5,unfamfemale03.jpg
2,1,77,3,1,0,875.44,capture003 copy.jpg
2,1,78,3,3,1,737.3,unfamfemale05.jpg
2,1,79,3,2,0,727.17,unfammale35.jpg
2,1,80,2,1,0,845.06,unfamfemale39.jpg
2,1,81,3,2,0,810.88,capture001 copy.jpg
2,1,82,2,1,0,752.79,unfamfemale26.jpg
2,1,83,1,1,1,670.62,capture010 copy.jpg
2,1,84,2,1,0,820.54,capture020 copy.jpg
2,1,85,2,2,1,762.37,unfammale39.jpg
2,1,86,3,2,0,776.23,unfamfemale03.jpg
2,1,87,2,1,0,782.16,unfammale21.jpg
2,1,88,2,3,0,1004,unfammale18.jpg
2,1,89,2,1,0,833.84,unfammale16.jpg
2,1,90,3,1,0,951.77,capture020 copy.jpg
2,1,91,2,1,0,845.63,unfamfemale32.jpg
2,1,92,3,2,0,763.52,unfammale39.jpg
2,1,93,2,2,1,793.37,unfamfemale24.jpg
2,1,94,2,2,1,935.22,capture010 copy.jpg
2,1,95,3,3,1,949.13,unfamfemale17.jpg
2,1,96,2,1,0,858.97,unfammale14.jpg
2,1,97,3,2,0,792.88,unfamfemale39.jpg
2,1,98,1,1,1,825.37,unfammale28.jpg
2,1,99,2,2,1,639.25,unfammale28.jpg
2,1,100,2,1,0,685.11,unfamfemale37.jpg
2,1,101,3,1,0,731,unfamfemale24.jpg
2,1,102,3,3,1,904.91,capture010 copy.jpg
2,1,103,3,3,1,966.79,unfammale02.jpg
2,1,104,2,2,1,1044.65,unfamfemale38.jpg
2,1,105,3,1,0,650.48,capture002 copy.jpg
2,1,106,1,2,0,723.04,unfammale09.jpg
2,1,107,3,3,1,704.9,unfammale08.jpg
2,1,108,3,1,0,694.8,unfammale18.jpg
2,1,109,2,2,1,724.64,unfamfemale40.jpg
2,1,110,2,3,0,850.56,unfammale23.jpg
2,1,111,2,1,0,920.43,capture012 copy.jpg
2,1,112,2,3,0,998.3,unfammale09.jpg
2,1,113,3,2,0,716.17,unfamfemale32.jpg
2,1,114,3,3,1,706.04,unfammale23.jpg
2,1,115,3,3,1,695.89,unfammale28.jpg
2,1,116,3,3,1,845.76,unfamfemale26.jpg
2,1,117,3,3,1,867.63,capture012 copy.jpg
2,1,118,3,2,0,833.52,unfammale05.jpg
2,1,119,3,3,1,751.4,unfammale14.jpg
2,1,120,3,3,1,629.27,unfammale19.jpg
2,1,121,3,1,0,787.11,unfamfemale40.jpg
2,1,122,2,2,1,633.01,unfamfemale15.jpg
2,1,123,3,3,1,958.88,unfammale16.jpg
2,1,124,3,1,0,812.72,unfammale21.jpg
2,1,125,2,2,1,714.62,unfamfemale21.jpg
2,1,126,3,3,1,760.51,unfamfemale08.jpg
2,1,127,3,2,0,862.38,unfamfemale21.jpg
2,1,128,3,2,0,788.23,unfamfemale15.jpg
2,1,129,3,1,0,754.09,unfamfemale06.jpg
2,1,130,3,1,0,791.99,unfamfemale01.jpg
2,1,131,2,1,0,925.84,unfammale25.jpg
2,1,132,3,2,0,571.7,unfammale25.jpg
2,1,133,3,1,0,921.59,unfamfemale38.jpg
2,1,134,3,0,0,0,unfamfemale37.jpg
2,1,135,3,2,0,429.32,capture005 copy.jpg
2,1,136,2,3,0,667.21,unfammale33.jpg
2,1,137,2,3,0,769.1,unfamfemale04.jpg
2,1,138,3,2,0,838.91,unfamfemale20.jpg
2,1,139,3,2,0,932.78,capture015 copy.jpg
2,1,140,3,1,0,818.66,unfammale33.jpg
2,1,141,3,3,1,856.51,unfammale09.jpg
2,1,142,3,2,0,982.4,unfamfemale10.jpg
2,1,143,3,3,1,798.99,capture011 copy.jpg
2,1,144,3,3,1,652.82,unfamfemale04.jpg
2,2,1,1,1,1,839.52,unfamfemale10.jpg
2,2,2,1,1,1,557.37,capture010 copy.jpg
2,2,3,1,1,1,451.2,capture020 copy.jpg
2,2,4,1,1,1,393.09,unfamfemale21.jpg
2,2,5,1,1,1,439,capture016 copy.jpg
2,2,6,1,1,1,500.85,unfammale09.jpg
2,2,7,1,1,1,418.73,unfammale39.jpg
2,2,8,1,1,1,456.62,capture011 copy.jpg
2,2,9,1,1,1,430.48,unfamfemale38.jpg
2,2,10,1,1,1,484.3,unfamfemale01.jpg
2,2,11,1,1,1,546.23,unfamfemale15.jpg
2,2,12,2,2,1,800.11,capture016 copy.jpg
2,2,13,1,1,1,709.99,unfammale12.jpg
2,2,14,1,1,1,1219.87,unfamfemale26.jpg
2,2,15,2,2,1,1025.74,unfammale09.jpg
2,2,16,1,1,1,631.6,capture005 copy.jpg
2,2,17,1,1,1,613.45,capture021 copy.jpg
2,2,18,1,1,1,803.29,unfammale16.jpg
2,2,19,1,1,1,689.15,unfammale21.jpg
2,2,20,1,1,1,735.04,unfammale28.jpg
2,2,21,1,1,1,860.96,unfammale18.jpg
2,2,22,1,1,1,778.82,capture001 copy.jpg
2,2,23,1,1,1,784.66,capture013 copy.jpg
2,2,24,2,1,0,710.57,capture011 copy.jpg
2,2,25,1,1,1,652.44,unfamfemale32.jpg
2,2,26,1,2,0,666.32,unfammale14.jpg
2,2,27,1,1,1,672.16,unfamfemale06.jpg
2,2,28,1,1,1,686.01,capture002 copy.jpg
2,2,29,1,2,0,758.61,unfamfemale20.jpg
2,2,30,1,1,1,700.45,unfammale33.jpg
2,2,31,1,1,1,682.28,unfammale08.jpg
2,2,32,2,1,0,800.22,unfamfemale21.jpg
2,2,33,2,1,0,750.04,unfammale18.jpg
2,2,34,1,1,1,891.95,unfammale02.jpg
2,2,35,2,2,1,769.79,unfammale39.jpg
2,2,36,2,2,1,823.71,unfamfemale15.jpg
2,2,37,2,1,0,733.54,unfammale16.jpg
2,2,38,1,2,0,803.44,capture012 copy.jpg
2,2,39,2,2,1,993.34,capture005 copy.jpg
2,2,40,2,2,1,807.2,unfammale08.jpg
2,2,41,3,2,0,757.01,unfammale39.jpg
2,2,42,1,1,1,778.92,unfamfemale17.jpg
2,2,43,2,2,1,776.81,unfamfemale32.jpg
2,2,44,1,1,1,758.63,unfammale35.jpg
2,2,45,1,1,1,924.52,unfammale25.jpg
2,2,46,2,3,0,850.42,capture012 copy.jpg
2,2,47,1,2,0,832.27,unfamfemale37.jpg
2,2,48,2,2,1,806.17,unfamfemale06.jpg
2,2,49,1,1,1,684.05,unfammale19.jpg
2,2,50,1,1,1,721.88,unfammale23.jpg
2,2,51,2,1,0,959.79,unfamfemale26.jpg
2,2,52,1,1,1,733.66,capture017 copy.jpg
2,2,53,1,1,1,595.52,unfamfemale03.jpg
2,2,54,2,2,1,625.35,capture021 copy.jpg
2,2,55,1,1,1,839.24,unfammale38.jpg
2,2,56,2,2,1,901.12,unfammale19.jpg
2,2,57,1,1,1,835.02,unfamfemale40.jpg
2,2,58,2,0,0,0,unfamfemale17.jpg
2,2,59,1,1,1,894.73,unfamfemale04.jpg
2,2,60,2,1,0,756.61,unfamfemale10.jpg
2,2,61,2,1,0,922.47,unfammale33.jpg
2,2,62,2,1,0,1080.38,unfammale02.jpg
2,2,63,3,1,0,702.21,capture016 copy.jpg
2,2,64,2,2,1,724.07,unfamfemale38.jpg
2,2,65,1,1,1,649.93,unfamfemale24.jpg
2,2,66,3,2,0,863.71,unfammale09.jpg
2,2,67,3,2,0,757.74,unfamfemale10.jpg
2,2,68,1,2,0,726.29,unfamfemale08.jpg
2,2,69,3,1,0,788.13,unfammale02.jpg
2,2,70,1,1,1,770.02,capture015 copy.jpg
2,2,71,1,1,1,671.89,unfammale05.jpg
2,2,72,2,2,1,637.74,capture015 copy.jpg
2,2,73,2,1,0,651.64,unfamfemale24.jpg
2,2,74,3,2,0,681.51,capture005 copy.jpg
2,2,75,3,3,1,1007.39,unfamfemale26.jpg
2,2,76,3,2,0,757.26,unfamfemale38.jpg
2,2,77,1,1,1,675.13,capture003 copy.jpg
2,2,78,2,2,1,760.96,unfamfemale04.jpg
2,2,79,3,2,0,894.87,unfamfemale24.jpg
2,2,80,2,1,0,860.69,unfamfemale40.jpg
2,2,81,2,1,0,730.6,capture002 copy.jpg
2,2,82,3,3,1,912.49,unfamfemale04.jpg
2,2,83,2,1,0,974.37,capture003 copy.jpg
2,2,84,2,2,1,1044.2,unfamfemale08.jpg
2,2,85,1,2,0,882.08,unfamfemale05.jpg
2,2,86,2,2,1,1079.99,unfamfemale20.jpg
2,2,87,2,1,0,685.79,unfammale14.jpg
2,2,88,3,3,1,795.72,capture021 copy.jpg
2,2,89,3,3,1,1025.6,unfammale14.jpg
2,2,90,2,1,0,839.45,capture001 copy.jpg
2,2,91,3,2,0,573.3,capture001 copy.jpg
2,2,92,2,1,0,867.17,unfammale21.jpg
2,2,93,2,1,0,1113.05,unfamfemale01.jpg
2,2,94,3,0,0,0,unfammale19.jpg
2,2,95,3,2,0,564.81,capture011 copy.jpg
2,2,96,2,2,1,874.7,unfamfemale05.jpg
2,2,97,2,3,0,904.57,capture013 copy.jpg
2,2,98,2,3,0,846.39,unfammale38.jpg
2,2,99,2,2,1,828.29,capture017 copy.jpg
2,2,100,1,1,1,770.18,unfamfemale39.jpg
2,2,101,3,3,1,784.05,unfamfemale08.jpg
2,2,102,2,2,1,909.93,unfammale35.jpg
2,2,103,3,1,0,843.75,unfamfemale06.jpg
2,2,104,3,3,1,729.63,capture003 copy.jpg
2,2,105,2,1,0,855.5,capture010 copy.jpg
2,2,106,3,2,0,917.37,capture015 copy.jpg
2,2,107,2,2,1,851.29,unfammale05.jpg
2,2,108,3,2,0,809.11,unfammale33.jpg
2,2,109,3,1,0,798.97,unfammale21.jpg
2,2,110,3,1,0,668.9,unfammale16.jpg
2,2,111,2,1,0,754.72,unfamfemale39.jpg
2,2,112,2,2,1,696.64,unfammale12.jpg
2,2,113,3,2,0,694.46,unfamfemale15.jpg
2,2,114,2,1,0,756.39,unfammale23.jpg
2,2,115,2,1,0,762.2,unfammale25.jpg
2,2,116,2,1,0,760.13,unfamfemale03.jpg
2,2,117,3,2,0,790.01,capture002 copy.jpg
2,2,118,3,2,0,1075.85,unfammale23.jpg
2,2,119,3,2,0,865.7,unfammale12.jpg
2,2,120,3,3,1,743.62,capture017 copy.jpg
2,2,121,3,2,0,821.46,unfamfemale01.jpg
2,2,122,2,1,0,819.36,capture020 copy.jpg
2,2,123,3,3,1,737.18,unfammale38.jpg
2,2,124,3,3,1,967.09,unfamfemale03.jpg
2,2,125,3,2,0,780.93,unfamfemale40.jpg
2,2,126,3,3,1,786.83,unfamfemale17.jpg
2,2,127,3,3,1,640.7,unfammale08.jpg
2,2,128,2,3,0,886.56,unfammale28.jpg
2,2,129,3,2,0,860.47,capture013 copy.jpg
2,2,130,3,3,1,738.29,unfammale28.jpg
2,2,131,3,3,1,816.15,capture020 copy.jpg
2,2,132,3,2,0,958.09,unfammale18.jpg
2,2,133,3,2,0,1027.9,unfamfemale21.jpg
2,2,134,3,3,1,649.76,unfamfemale05.jpg
2,2,135,2,2,1,831.71,unfamfemale37.jpg
2,2,136,3,2,0,845.56,unfamfemale32.jpg
2,2,137,3,2,0,1027.44,capture012 copy.jpg
2,2,138,3,2,0,849.3,unfamfemale39.jpg
2,2,139,3,3,1,935.13,unfamfemale20.jpg
2,2,140,3,3,1,781.05,unfamfemale37.jpg
2,2,141,3,3,1,858.89,unfammale35.jpg
2,2,142,3,2,0,824.8,unfammale05.jpg
2,2,143,3,3,1,878.64,capture010 copy.jpg
2,2,144,3,1,0,932.55,unfammale25.jpg
2,3,1,1,1,1,770.56,unfammale14.jpg
2,3,2,1,1,1,408.43,unfammale28.jpg
2,3,3,1,1,1,438.36,unfamfemale10.jpg
2,3,4,1,1,1,364.21,capture001 copy.jpg
2,3,5,2,2,1,706.11,unfammale28.jpg
2,3,6,1,1,1,671.9,unfamfemale21.jpg
2,3,7,2,3,0,829.86,unfammale14.jpg
2,3,8,1,1,1,827.67,capture020 copy.jpg
2,3,9,1,1,1,721.59,capture013 copy.jpg
2,3,10,1,1,1,535.46,unfammale05.jpg
2,3,11,1,1,1,589.26,unfamfemale20.jpg
2,3,12,1,1,1,579.19,unfamfemale26.jpg
2,3,13,1,1,1,513.01,unfamfemale39.jpg
2,3,14,1,1,1,678.9,unfammale12.jpg
2,3,15,3,2,0,972.79,unfammale14.jpg
2,3,16,1,1,1,1074.67,unfammale19.jpg
2,3,17,1,1,1,656.52,unfamfemale17.jpg
2,3,18,1,1,1,518.41,capture017 copy.jpg
2,3,19,1,1,1,596.31,capture012 copy.jpg
2,3,20,1,1,1,562.13,unfammale18.jpg
2,3,21,2,1,0,695.57,unfamfemale20.jpg
2,3,22,1,1,1,685.89,unfammale02.jpg
2,3,23,1,1,1,731.76,unfamfemale03.jpg
2,3,24,1,1,1,769.67,unfammale35.jpg
2,3,25,3,2,0,775.48,unfamfemale20.jpg
2,3,26,1,1,1,741.35,unfamfemale08.jpg
2,3,27,1,1,1,747.24,capture002 copy.jpg
2,3,28,1,1,1,785.16,unfamfemale24.jpg
2,3,29,2,1,0,734.97,unfamfemale21.jpg
2,3,30,2,2,1,708.85,unfamfemale10.jpg
2,3,31,2,1,0,765.46,unfammale18.jpg
2,3,32,1,1,1,835.32,capture003 copy.jpg
2,3,33,1,1,1,769.16,unfamfemale38.jpg
2,3,34,1,1,1,1087.08,unfamfemale40.jpg
2,3,35,2,2,1,756.94,unfamfemale03.jpg
2,3,36,1,1,1,754.81,unfamfemale01.jpg
2,3,37,1,1,1,752.62,capture016 copy.jpg
2,3,38,1,1,1,670.49,unfammale39.jpg
2,3,39,2,1,0,652.39,unfamfemale24.jpg
2,3,40,2,2,1,778.28,unfamfemale40.jpg
2,3,41,2,1,0,640.12,unfammale02.jpg
2,3,42,3,1,0,878.01,unfammale18.jpg
2,3,43,2,1,0,683.91,capture017 copy.jpg
2,3,44,1,1,1,697.77,capture005 copy.jpg
2,3,45,2,2,1,1063.64,capture002 copy.jpg
2,3,46,1,1,1,693.52,unfamfemale05.jpg
2,3,47,1,1,1,739.4,unfamfemale37.jpg
2,3,48,3,2,0,881.22,unfammale28.jpg
2,3,49,2,2,1,775.09,unfamfemale05.jpg
2,3,50,2,2,1,749.01,unfammale35.jpg
2,3,51,2,1,0,754.82,unfamfemale17.jpg
2,3,52,1,1,1,824.73,unfammale21.jpg
2,3,53,1,1,1,718.63,unfamfemale32.jpg
2,3,54,2,1,0,636.49,unfammale05.jpg
2,3,55,1,1,1,922.31,unfammale16.jpg
2,3,56,1,1,1,904.2,unfamfemale04.jpg
2,3,57,1,1,1,894.09,unfammale09.jpg
2,3,58,2,2,1,747.99,unfammale39.jpg
2,3,59,1,1,1,753.81,capture021 copy.jpg
2,3,60,2,2,1,823.73,unfamfemale37.jpg
2,3,61,2,2,1,813.56,unfammale16.jpg
2,3,62,2,2,1,915.45,capture012 copy.jpg
2,3,63,1,1,1,841.3,unfamfemale06.jpg
2,3,64,1,1,1,847.21,unfammale08.jpg
2,3,65,2,2,1,797.04,capture003 copy.jpg
2,3,66,2,2,1,738.91,unfammale08.jpg
2,3,67,3,2,0,720.81,unfamfemale40.jpg
2,3,68,1,1,1,646.7,unfammale33.jpg
2,3,69,3,1,0,772.56,unfamfemale17.jpg
2,3,70,1,1,1,978.46,unfammale23.jpg
2,3,71,3,2,0,752.31,capture017 copy.jpg
2,3,72,1,1,1,726.19,unfammale25.jpg
2,3,73,1,1,1,756,capture011 copy.jpg
2,3,74,1,2,0,761.93,capture010 copy.jpg
2,3,75,2,2,1,911.77,unfamfemale08.jpg
2,3,76,2,2,1,925.64,unfamfemale39.jpg
2,3,77,2,1,0,867.51,capture013 copy.jpg
2,3,78,2,1,0,913.37,unfamfemale38.jpg
2,3,79,2,1,0,959.26,unfammale23.jpg
2,3,80,2,1,0,1125.17,capture016 copy.jpg
2,3,81,1,1,1,747.03,unfammale38.jpg
2,3,82,3,2,0,704.87,unfamfemale08.jpg
2,3,83,2,2,1,702.78,unfammale33.jpg
2,3,84,2,1,0,852.65,unfammale12.jpg
2,3,85,1,1,1,733.13,capture015 copy.jpg
2,3,86,2,1,0,867.01,unfamfemale26.jpg
2,3,87,3,2,0,1048.95,unfamfemale39.jpg
2,3,88,2,2,1,670.8,capture015 copy.jpg
2,3,89,3,2,0,692.68,unfamfemale24.jpg
2,3,90,2,2,1,674.51,capture011 copy.jpg
2,3,91,2,2,1,720.42,unfamfemale32.jpg
2,3,92,2,2,1,766.3,capture010 copy.jpg
2,3,93,3,3,1,812.16,unfamfemale32.jpg
2,3,94,2,2,1,914,capture005 copy.jpg
2,3,95,3,2,0,799.91,unfamfemale03.jpg
2,3,96,2,2,1,784.38,capture021 copy.jpg
2,3,97,2,2,1,806.29,capture001 copy.jpg
2,3,98,2,2,1,788.17,unfammale09.jpg
2,3,99,3,3,1,906.06,capture010 copy.jpg
2,3,100,2,2,1,815.91,unfamfemale04.jpg
2,3,101,3,2,0,829.8,unfammale12.jpg
2,3,102,2,2,1,915.69,unfammale25.jpg
2,3,103,1,1,1,769.56,unfamfemale15.jpg
2,3,104,2,2,1,1127.44,unfamfemale01.jpg
2,3,105,3,2,0,789.29,unfammale09.jpg
2,3,106,3,3,1,619.15,capture021 copy.jpg
2,3,107,2,1,0,897.05,capture020 copy.jpg
2,3,108,2,2,1,1038.92,unfammale19.jpg
2,3,109,2,1,0,756.76,unfammale21.jpg
2,3,110,2,2,1,906.67,unfamfemale06.jpg
2,3,111,3,0,0,0,unfamfemale21.jpg
2,3,112,3,1,0,206.36,unfamfemale38.jpg
2,3,113,3,3,1,724.28,unfammale19.jpg
2,3,114,3,2,0,938.1,capture013 copy.jpg
2,3,115,3,2,0,831.97,unfamfemale05.jpg
2,3,116,3,2,0,845.86,capture003 copy.jpg
2,3,117,3,2,0,763.76,capture020 copy.jpg
2,3,118,3,3,1,881.58,capture016 copy.jpg
2,3,119,3,2,0,719.48,unfammale02.jpg
2,3,120,3,3,1,765.34,unfammale33.jpg
2,3,121,3,1,0,843.21,unfammale25.jpg
2,3,122,3,2,0,761.11,capture001 copy.jpg
2,3,123,3,3,1,766.97,unfamfemale37.jpg
2,3,124,3,2,0,756.85,capture005 copy.jpg
2,3,125,3,2,0,882.71,unfamfemale01.jpg
2,3,126,3,2,0,856.61,unfammale39.jpg
2,3,127,3,3,1,782.44,unfammale23.jpg
2,3,128,2,2,1,804.3,unfamfemale15.jpg
2,3,129,3,2,0,842.21,capture002 copy.jpg
2,3,130,3,3,1,1024.11,unfamfemale06.jpg
2,3,131,3,3,1,845.95,capture015 copy.jpg
2,3,132,3,2,0,827.81,capture012 copy.jpg
2,3,133,3,2,0,753.71,unfammale16.jpg
2,3,134,2,2,1,815.51,unfammale38.jpg
2,3,135,3,2,0,717.42,unfamfemale04.jpg
2,3,136,3,3,1,707.27,unfammale38.jpg
2,3,137,3,2,0,849.15,unfammale05.jpg
2,3,138,3,2,0,967.08,unfamfemale10.jpg
2,3,139,3,2,0,876.95,unfamfemale26.jpg
2,3,140,3,3,1,722.78,unfamfemale15.jpg
2,3,141,3,1,0,768.66,unfammale21.jpg
2,3,142,3,2,0,774.53,unfammale35.jpg
2,3,143,3,2,0,844.41,unfammale08.jpg
2,3,144,3,1,0,866.31,capture011 copy.jpg
2,4,1,1,1,1,567.38,unfammale33.jpg
2,4,2,1,1,1,357.26,capture016 copy.jpg
2,4,3,1,1,1,379.18,unfammale18.jpg
2,4,4,1,1,1,593.04,capture003 copy.jpg
2,4,5,1,1,1,766.93,unfamfemale05.jpg
2,4,6,1,1,1,796.78,unfammale35.jpg
2,4,7,1,1,1,810.68,unfamfemale24.jpg
2,4,8,1,1,1,648.48,unfamfemale15.jpg
2,4,9,1,1,1,790.42,unfammale38.jpg
2,4,10,1,1,1,684.27,capture005 copy.jpg
2,4,11,1,1,1,802.11,unfamfemale26.jpg
2,4,12,1,1,1,736.03,unfamfemale06.jpg
2,4,13,1,1,1,757.91,unfamfemale39.jpg
2,4,14,2,1,0,763.78,capture016 copy.jpg
2,4,15,1,1,1,633.65,unfammale23.jpg
2,4,16,1,1,1,583.52,unfammale12.jpg
2,4,17,2,1,0,623.99,unfamfemale39.jpg
2,4,18,1,1,1,1029.94,unfamfemale08.jpg
2,4,19,2,1,0,827.81,capture003 copy.jpg
2,4,20,1,1,1,657.63,unfamfemale37.jpg
2,4,21,1,1,1,647.51,unfammale05.jpg
2,4,22,1,1,1,837.38,unfamfemale01.jpg
2,4,23,2,2,1,629.97,unfammale23.jpg
2,4,24,2,2,1,683.84,unfamfemale06.jpg
2,4,25,1,2,0,873.72,unfammale21.jpg
2,4,26,1,1,1,767.52,unfammale39.jpg
2,4,27,2,2,1,653.46,capture005 copy.jpg
2,4,28,1,1,1,675.3,unfammale19.jpg
2,4,29,1,1,1,649.17,unfamfemale17.jpg
2,4,30,2,2,1,799.06,unfamfemale24.jpg
2,4,31,1,1,1,756.91,unfammale09.jpg
2,4,32,1,1,1,682.77,unfamfemale20.jpg
2,4,33,1,1,1,808.69,capture012 copy.jpg
2,4,34,2,2,1,710.56,unfamfemale15.jpg
2,4,35,1,1,1,668.38,capture011 copy.jpg
2,4,36,3,1,0,746.28,unfamfemale24.jpg
2,4,37,2,2,1,672.16,unfammale09.jpg
2,4,38,1,1,1,837.99,capture010 copy.jpg
2,4,39,1,1,1,883.92,unfammale28.jpg
2,4,40,1,1,1,793.78,unfammale02.jpg
2,4,41,2,1,0,1047.64,unfamfemale05.jpg
2,4,42,2,1,0,1013.54,unfammale05.jpg
2,4,43,1,1,1,635.38,capture001 copy.jpg
2,4,44,1,1,1,561.21,unfammale16.jpg
2,4,45,1,1,1,695.11,unfammale14.jpg
2,4,46,2,2,1,580.95,capture011 copy.jpg
2,4,47,1,1,1,698.81,unfamfemale03.jpg
2,4,48,1,1,1,752.76,capture021 copy.jpg
2,4,49,2,2,1,630.63,capture021 copy.jpg
2,4,50,1,2,0,1020.49,unfammale08.jpg
2,4,51,1,1,1,778.38,unfamfemale40.jpg
2,4,52,2,2,1,688.18,unfammale35.jpg
2,4,53,1,1,1,750.12,unfamfemale38.jpg
2,4,54,2,2,1,667.99,unfamfemale38.jpg
2,4,55,1,1,1,849.87,unfammale25.jpg
2,4,56,2,1,0,871.72,unfammale16.jpg
2,4,57,1,1,1,669.57,unfamfemale32.jpg
2,4,58,2,1,0,763.47,capture001 copy.jpg
2,4,59,2,2,1,905.36,unfamfemale08.jpg
2,4,60,1,1,1,895.18,unfamfemale21.jpg
2,4,61,3,2,0,861.1,capture003 copy.jpg
2,4,62,2,2,1,834.95,unfamfemale20.jpg
2,4,63,1,1,1,832.84,capture002 copy.jpg
2,4,64,2,2,1,798.7,capture012 copy.jpg
2,4,65,1,1,1,756.53,capture013 copy.jpg
2,4,66,3,3,1,1090.46,capture012 copy.jpg
2,4,67,3,2,0,712.32,capture001 copy.jpg
2,4,68,1,1,1,894.19,capture020 copy.jpg
2,4,69,3,3,1,860.01,unfammale35.jpg
2,4,70,2,2,1,713.92,unfammale33.jpg
2,4,71,3,2,0,751.75,unfammale16.jpg
2,4,72,1,1,1,773.68,capture017 copy.jpg
2,4,73,2,1,0,915.54,unfammale25.jpg
2,4,74,2,2,1,809.38,unfammale14.jpg
2,4,75,2,2,1,783.3,unfammale39.jpg
2,4,76,2,2,1,773.17,capture002 copy.jpg
2,4,77,2,2,1,899.04,unfamfemale40.jpg
2,4,78,3,3,1,920.86,unfammale23.jpg
2,4,79,1,1,1,998.78,capture015 copy.jpg
2,4,80,2,2,1,964.61,unfamfemale01.jpg
2,4,81,2,2,1,810.49,unfamfemale17.jpg
2,4,82,3,2,0,768.36,unfamfemale15.jpg
2,4,83,3,3,1,702.22,unfamfemale20.jpg
2,4,84,2,2,1,684.14,capture020 copy.jpg
2,4,85,3,3,1,674.01,unfammale09.jpg
2,4,86,1,1,1,911.84,unfamfemale04.jpg
2,4,87,2,2,1,957.74,unfammale28.jpg
2,4,88,3,2,0,1019.64,unfamfemale39.jpg
2,4,89,2,2,1,873.47,unfamfemale03.jpg
2,4,90,2,3,0,641.96,unfammale08.jpg
2,4,91,2,2,1,663.9,unfammale18.jpg
2,4,92,2,3,0,856.46,capture013 copy.jpg
2,4,93,2,2,1,894.34,capture010 copy.jpg
2,4,94,2,1,0,964.21,unfamfemale26.jpg
2,4,95,3,2,0,706.02,unfamfemale38.jpg
2,4,96,3,3,1,727.95,unfammale08.jpg
2,4,97,2,2,1,861.82,unfammale38.jpg
2,4,98,2,2,1,819.63,unfamfemale21.jpg
2,4,99,3,3,1,985.38,unfamfemale06.jpg
2,4,100,2,3,0,895.39,unfammale02.jpg
2,4,101,3,3,1,749.3,unfamfemale01.jpg
2,4,102,2,2,1,779.18,unfamfemale32.jpg
2,4,103,3,3,1,825.02,unfammale39.jpg
2,4,104,2,2,1,766.86,unfammale21.jpg
2,4,105,3,3,1,812.77,unfamfemale40.jpg
2,4,106,3,3,1,682.6,unfammale02.jpg
2,4,107,1,3,0,736.54,unfamfemale10.jpg
2,4,108,3,3,1,566.4,capture021 copy.jpg
2,4,109,3,3,1,780.27,unfammale14.jpg
2,4,110,2,2,1,746.15,capture015 copy.jpg
2,4,111,3,3,1,743.96,capture005 copy.jpg
2,4,112,3,3,1,717.82,capture020 copy.jpg
2,4,113,2,2,1,771.74,unfammale19.jpg
2,4,114,3,3,1,913.64,capture010 copy.jpg
2,4,115,3,2,0,847.52,unfamfemale21.jpg
2,4,116,3,3,1,1005.39,unfamfemale26.jpg
2,4,117,3,3,1,747.19,unfamfemale32.jpg
2,4,118,3,3,1,793.12,unfamfemale05.jpg
2,4,119,3,2,0,910.99,unfammale25.jpg
2,4,120,3,3,1,884.87,unfamfemale17.jpg
2,4,121,3,3,1,794.74,unfamfemale08.jpg
2,4,122,3,2,0,1032.59,capture013 copy.jpg
2,4,123,2,3,0,926.49,unfamfemale10.jpg
2,4,124,3,2,0,940.36,unfammale21.jpg
2,4,125,2,2,1,858.22,capture017 copy.jpg
2,4,126,3,3,1,728.04,unfammale33.jpg
2,4,127,3,3,1,661.94,capture017 copy.jpg
2,4,128,3,2,0,851.8,unfammale05.jpg
2,4,129,2,2,1,1017.67,unfammale12.jpg
2,4,130,3,3,1,863.53,capture011 copy.jpg
2,4,131,3,3,1,853.42,unfamfemale03.jpg
2,4,132,3,2,0,875.33,unfammale18.jpg
2,4,133,3,3,1,921.18,capture002 copy.jpg
2,4,134,2,3,0,863.01,unfamfemale04.jpg
2,4,135,3,3,1,964.95,capture016 copy.jpg
2,4,136,3,3,1,618.77,unfamfemale04.jpg
2,4,137,3,3,1,640.63,unfamfemale10.jpg
2,4,138,2,2,1,806.56,unfamfemale37.jpg
2,4,139,3,3,1,876.43,capture015 copy.jpg
2,4,140,3,3,1,746.24,unfammale19.jpg
2,4,141,3,3,1,624.16,unfamfemale37.jpg
2,4,142,3,3,1,701.98,unfammale12.jpg
2,4,143,3,3,1,755.92,unfammale38.jpg
2,4,144,3,2,0,817.79,unfammale28.jpg
2,5,1,1,1,1,757.26,unfammale14.jpg
2,5,2,1,1,1,499.16,unfammale38.jpg
2,5,3,1,1,1,401.03,capture016 copy.jpg
2,5,4,1,1,1,742.91,unfammale08.jpg
2,5,5,1,1,1,644.78,unfamfemale21.jpg
2,5,6,1,1,1,666.64,unfammale39.jpg
2,5,7,1,1,1,752.47,unfamfemale05.jpg
2,5,8,1,1,1,534.38,unfamfemale08.jpg
2,5,9,1,1,1,580.24,unfammale09.jpg
2,5,10,1,1,1,906.13,capture002 copy.jpg
2,5,11,2,1,0,1080.02,unfamfemale21.jpg
2,5,12,1,1,1,589.88,unfamfemale04.jpg
2,5,13,1,1,1,547.75,capture011 copy.jpg
2,5,14,1,1,1,609.59,capture017 copy.jpg
2,5,15,1,1,1,663.44,unfamfemale10.jpg
2,5,16,1,1,1,597.37,capture012 copy.jpg
2,5,17,1,1,1,643.2,unfammale33.jpg
2,5,18,1,1,1,673.1,unfamfemale37.jpg
2,5,19,1,1,1,630.99,unfammale19.jpg
2,5,20,1,1,1,620.83,unfamfemale03.jpg
2,5,21,2,2,1,754.72,unfamfemale05.jpg
2,5,22,2,1,0,768.59,unfammale39.jpg
2,5,23,1,1,1,734.42,unfammale18.jpg
2,5,24,1,1,1,940.29,unfammale35.jpg
2,5,25,2,2,1,818.21,unfammale09.jpg
2,5,26,1,1,1,608.08,capture020 copy.jpg
2,5,27,2,2,1,805.93,unfammale08.jpg
2,5,28,2,2,1,883.79,unfammale38.jpg
2,5,29,2,2,1,841.66,unfamfemale37.jpg
2,5,30,1,1,1,703.54,unfamfemale01.jpg
2,5,31,3,2,0,749.43,unfammale39.jpg
2,5,32,2,3,0,755.32,unfamfemale01.jpg
2,5,33,1,1,1,1153.2,unfammale25.jpg
2,5,34,2,2,1,527.06,unfamfemale10.jpg
2,5,35,1,1,1,732.93,unfamfemale06.jpg
2,5,36,1,1,1,794.8,unfamfemale20.jpg
2,5,37,1,1,1,851.3,unfamfemale39.jpg
2,5,38,2,1,0,937.23,capture012 copy.jpg
2,5,39,2,2,1,711.04,capture016 copy.jpg
2,5,40,2,2,1,828.96,unfammale25.jpg
2,5,41,2,2,1,786.84,capture017 copy.jpg
2,5,42,1,1,1,728.7,capture015 copy.jpg
2,5,43,1,1,1,694.56,unfammale02.jpg
2,5,44,1,2,0,844.43,unfammale28.jpg
2,5,45,1,1,1,674.26,unfamfemale26.jpg
2,5,46,1,1,1,672.15,capture013 copy.jpg
2,5,47,1,2,0,694.07,unfamfemale32.jpg
2,5,48,1,2,0,891.89,unfamfemale15.jpg
2,5,49,1,2,0,929.79,capture010 copy.jpg
2,5,50,2,2,1,871.64,unfammale02.jpg
2,5,51,2,1,0,757.5,unfammale14.jpg
2,5,52,2,2,1,731.41,unfammale18.jpg
2,5,53,1,1,1,745.28,capture001 copy.jpg
2,5,54,3,2,0,951.12,capture016 copy.jpg
2,5,55,2,2,1,925.04,unfamfemale32.jpg
2,5,56,2,2,1,962.92,capture013 copy.jpg
2,5,57,3,2,0,768.78,capture012 copy.jpg
2,5,58,1,1,1,734.6,unfamfemale40.jpg
2,5,59,2,2,1,764.49,unfamfemale20.jpg
2,5,60,1,1,1,738.39,unfammale23.jpg
2,5,61,2,2,1,666.89,unfammale33.jpg
2,5,62,2,1,0,944.79,unfamfemale40.jpg
2,5,63,1,1,1,718.64,unfammale16.jpg
2,5,64,1,1,1,860.55,capture021 copy.jpg
2,5,65,2,1,0,802.39,capture002 copy.jpg
2,5,66,1,1,1,928.31,unfamfemale17.jpg
2,5,67,2,2,1,726.17,unfamfemale15.jpg
2,5,68,2,1,0,764.04,capture011 copy.jpg
2,5,69,2,2,1,833.89,unfamfemale03.jpg
2,5,70,2,2,1,831.79,unfamfemale08.jpg
2,5,71,3,2,0,741.65,unfammale33.jpg
2,5,72,1,1,1,731.51,capture005 copy.jpg
2,5,73,1,1,1,673.4,unfammale12.jpg
2,5,74,3,3,1,847.27,unfamfemale15.jpg
2,5,75,2,2,1,997.16,capture005 copy.jpg
2,5,76,2,2,1,827.02,unfammale19.jpg
2,5,77,2,2,1,832.89,unfammale16.jpg
2,5,78,2,2,1,870.76,capture010 copy.jpg
2,5,79,2,2,1,772.63,capture020 copy.jpg
2,5,80,3,2,0,810.46,unfamfemale21.jpg
2,5,81,1,1,1,760.37,unfammale05.jpg
2,5,82,2,2,1,902.25,unfammale05.jpg
2,5,83,3,2,0,908.09,unfammale38.jpg
2,5,84,3,1,0,897.99,capture011 copy.jpg
2,5,85,2,2,1,903.84,unfamfemale06.jpg
2,5,86,2,2,1,693.71,unfammale23.jpg
2,5,87,2,2,1,851.59,capture015 copy.jpg
2,5,88,2,2,1,897.48,unfamfemale26.jpg
2,5,89,3,2,0,807.35,unfamfemale10.jpg
2,5,90,3,3,1,773.18,capture020 copy.jpg
2,5,91,2,2,1,819.03,unfamfemale39.jpg
2,5,92,2,2,1,824.92,capture001 copy.jpg
2,5,93,1,1,1,870.81,unfamfemale24.jpg
2,5,94,1,1,1,932.66,capture003 copy.jpg
2,5,95,2,1,0,890.58,unfamfemale04.jpg
2,5,96,3,2,0,800.42,unfamfemale26.jpg
2,5,97,3,2,0,798.27,unfamfemale20.jpg
2,5,98,2,2,1,900.15,capture003 copy.jpg
2,5,99,3,1,0,946.07,capture002 copy.jpg
2,5,100,3,2,0,911.89,capture013 copy.jpg
2,5,101,3,2,0,925.73,unfamfemale05.jpg
2,5,102,3,2,0,859.68,unfammale23.jpg
2,5,103,3,2,0,945.55,unfammale02.jpg
2,5,104,1,2,0,927.43,unfammale21.jpg
2,5,105,3,3,1,925.3,unfammale09.jpg
2,5,106,2,2,1,851.11,unfamfemale24.jpg
2,5,107,3,3,1,857.04,unfammale16.jpg
2,5,108,3,3,1,766.9,capture003 copy.jpg
2,5,109,3,2,0,820.78,unfammale14.jpg
2,5,110,3,2,0,802.65,unfammale25.jpg
2,5,111,3,2,0,696.48,unfammale18.jpg
2,5,112,1,2,0,854.39,unfamfemale38.jpg
2,5,113,3,2,0,996.22,capture001 copy.jpg
2,5,114,3,2,0,1034.09,unfamfemale06.jpg
2,5,115,2,2,1,751.96,unfammale12.jpg
2,5,116,2,3,0,653.88,unfamfemale38.jpg
2,5,117,3,3,1,979.76,unfamfemale32.jpg
2,5,118,2,3,0,953.63,unfammale21.jpg
2,5,119,3,3,1,839.5,unfammale05.jpg
2,5,120,3,3,1,853.34,unfammale21.jpg
2,5,121,3,2,0,963.2,capture005 copy.jpg
2,5,122,3,2,0,793.11,unfamfemale37.jpg
2,5,123,2,2,1,774.98,capture021 copy.jpg
2,5,124,3,3,1,764.85,unfamfemale38.jpg
2,5,125,3,3,1,922.73,capture010 copy.jpg
2,5,126,3,3,1,1104.59,unfammale12.jpg
2,5,127,2,2,1,662.42,unfammale28.jpg
2,5,128,3,3,1,636.29,unfammale08.jpg
2,5,129,3,3,1,674.18,unfammale19.jpg
2,5,130,3,2,0,920.08,unfamfemale01.jpg
2,5,131,2,2,1,925.9,unfammale35.jpg
2,5,132,3,3,1,747.82,capture021 copy.jpg
2,5,133,3,3,1,913.64,unfamfemale24.jpg
2,5,134,3,2,0,919.52,unfamfemale40.jpg
2,5,135,3,2,0,941.4,capture015 copy.jpg
2,5,136,3,2,0,963.26,capture017 copy.jpg
2,5,137,2,2,1,761.14,unfamfemale17.jpg
2,5,138,3,2,0,719,unfammale28.jpg
2,5,139,3,3,1,732.92,unfamfemale04.jpg
2,5,140,3,3,1,730.8,unfamfemale03.jpg
2,5,141,3,2,0,856.67,unfamfemale39.jpg
2,5,142,3,2,0,990.49,unfamfemale08.jpg
2,5,143,3,3,1,948.42,unfamfemale17.jpg
2,5,144,3,3,1,874.28,unfammale35.jpg
2,6,1,1,1,1,701.67,unfamfemale20.jpg
2,6,2,1,1,1,611.52,capture005 copy.jpg
2,6,3,1,1,1,457.41,unfammale16.jpg
2,6,4,1,1,1,719.27,unfammale14.jpg
2,6,5,1,1,1,797.15,unfammale05.jpg
2,6,6,1,1,1,1011.04,unfammale39.jpg
2,6,7,1,1,1,648.93,capture020 copy.jpg
2,6,8,2,1,0,518.81,capture005 copy.jpg
2,6,9,1,1,1,644.63,unfammale12.jpg
2,6,10,1,1,1,634.53,unfammale33.jpg
2,6,11,1,1,1,648.38,capture015 copy.jpg
2,6,12,1,1,1,678.3,capture017 copy.jpg
2,6,13,1,1,1,732.16,capture011 copy.jpg
2,6,14,1,1,1,1122.06,capture003 copy.jpg
2,6,15,2,2,1,599.9,unfammale39.jpg
2,6,16,1,1,1,701.78,unfamfemale03.jpg
2,6,17,2,2,1,659.6,capture015 copy.jpg
2,6,18,1,1,1,681.49,unfamfemale24.jpg
2,6,19,1,1,1,791.37,unfammale19.jpg
2,6,20,2,2,1,765.25,unfammale33.jpg
2,6,21,1,1,1,803.15,unfammale08.jpg
2,6,22,1,1,1,713.01,capture010 copy.jpg
2,6,23,1,1,1,574.89,unfamfemale40.jpg
2,6,24,1,1,1,604.71,unfamfemale06.jpg
2,6,25,1,1,1,722.59,capture021 copy.jpg
2,6,26,2,1,0,1016.48,unfammale12.jpg
2,6,27,1,1,1,574.37,unfamfemale37.jpg
2,6,28,1,1,1,540.21,unfammale35.jpg
2,6,29,2,1,0,722.08,capture003 copy.jpg
2,6,30,1,1,1,623.99,unfamfemale04.jpg
2,6,31,1,1,1,789.86,unfamfemale17.jpg
2,6,32,1,1,1,979.72,unfamfemale38.jpg
2,6,33,1,1,1,777.57,unfammale18.jpg
2,6,34,1,1,1,871.48,unfamfemale01.jpg
2,6,35,1,1,1,925.35,unfamfemale21.jpg
2,6,36,1,1,1,1027.19,unfammale09.jpg
2,6,37,1,2,0,801.06,unfammale28.jpg
2,6,38,1,1,1,758.93,capture012 copy.jpg
2,6,39,2,1,0,724.83,unfammale05.jpg
2,6,40,1,1,1,682.69,unfammale25.jpg
2,6,41,3,1,0,912.56,unfammale33.jpg
2,6,42,2,1,0,766.39,unfammale16.jpg
2,6,43,2,2,1,804.32,unfammale35.jpg
2,6,44,1,1,1,802.16,unfammale21.jpg
2,6,45,2,1,0,752.05,unfammale19.jpg
2,6,46,1,1,1,757.9,unfammale02.jpg
2,6,47,1,1,1,731.81,unfammale38.jpg
2,6,48,2,1,0,945.66,capture011 copy.jpg
2,6,49,2,1,0,791.54,unfamfemale03.jpg
2,6,50,2,2,1,821.42,unfammale09.jpg
2,6,51,2,2,1,811.29,unfammale25.jpg
2,6,52,2,2,1,761.16,unfamfemale21.jpg
2,6,53,2,2,1,1014.99,capture012 copy.jpg
2,6,54,2,2,1,692.88,unfammale38.jpg
2,6,55,2,2,1,674.73,capture021 copy.jpg
2,6,56,1,1,1,792.62,capture016 copy.jpg
2,6,57,1,1,1,718.49,unfamfemale32.jpg
2,6,58,2,1,0,676.39,unfammale18.jpg
2,6,59,2,2,1,738.2,capture010 copy.jpg
2,6,60,1,1,1,864.09,capture001 copy.jpg
2,6,61,2,0,0,0,unfamfemale32.jpg
2,6,62,3,2,0,99.84,unfammale38.jpg
2,6,63,2,1,0,681.73,unfamfemale40.jpg
2,6,64,2,2,1,719.57,unfammale28.jpg
2,6,65,1,2,0,845.44,unfamfemale05.jpg
2,6,66,2,2,1,875.37,capture017 copy.jpg
2,6,67,3,2,0,841.21,unfammale18.jpg
2,6,68,1,2,0,927.09,unfammale23.jpg
2,6,69,1,1,1,1052.99,capture013 copy.jpg
2,6,70,1,1,1,666.85,capture002 copy.jpg
2,6,71,2,2,1,1064.74,unfammale23.jpg
2,6,72,3,3,1,950.6,capture012 copy.jpg
2,6,73,1,2,0,924.45,unfamfemale26.jpg
2,6,74,3,2,0,650.28,unfamfemale03.jpg
2,6,75,2,2,1,896.22,capture020 copy.jpg
2,6,76,2,2,1,742.06,capture001 copy.jpg
2,6,77,2,2,1,883.96,capture013 copy.jpg
2,6,78,3,2,0,745.8,capture015 copy.jpg
2,6,79,3,1,0,903.7,capture005 copy.jpg
2,6,80,3,2,0,797.52,unfammale19.jpg
2,6,81,3,2,0,827.42,unfammale12.jpg
2,6,82,2,2,1,801.31,unfammale08.jpg
2,6,83,1,1,1,839.19,unfamfemale15.jpg
2,6,84,2,2,1,837.06,unfamfemale17.jpg
2,6,85,3,3,1,786.87,capture001 copy.jpg
2,6,86,3,3,1,888.8,capture017 copy.jpg
2,6,87,3,2,0,758.68,unfammale28.jpg
2,6,88,1,1,1,804.52,unfamfemale10.jpg
2,6,89,2,1,0,898.41,unfamfemale24.jpg
2,6,90,1,1,1,808.29,unfamfemale39.jpg
2,6,91,2,2,1,870.16,unfamfemale20.jpg
2,6,92,3,3,1,1060.02,unfamfemale20.jpg
2,6,93,2,2,1,945.87,unfamfemale38.jpg
2,6,94,1,2,0,799.74,unfamfemale08.jpg
2,6,95,3,3,1,725.64,capture021 copy.jpg
2,6,96,2,3,0,827.51,unfamfemale10.jpg
2,6,97,2,2,1,793.34,capture002 copy.jpg
2,6,98,3,1,0,1039.25,unfammale25.jpg
2,6,99,2,2,1,919.73,unfamfemale01.jpg
2,6,100,3,2,0,837.68,unfammale05.jpg
2,6,101,3,3,1,867.5,unfammale09.jpg
2,6,102,2,2,1,1057.43,unfamfemale26.jpg
2,6,103,3,2,0,727.27,capture011 copy.jpg
2,6,104,2,3,0,829.16,unfamfemale08.jpg
2,6,105,3,2,0,826.96,unfammale39.jpg
2,6,106,2,2,1,832.86,unfamfemale05.jpg
2,6,107,3,3,1,726.78,unfamfemale38.jpg
2,6,108,2,2,1,804.64,capture016 copy.jpg
2,6,109,3,3,1,626.5,unfamfemale05.jpg
2,6,110,3,2,0,888.39,unfamfemale40.jpg
2,6,111,3,3,1,918.27,capture020 copy.jpg
2,6,112,3,3,1,812.13,unfamfemale10.jpg
2,6,113,2,2,1,937.95,unfammale21.jpg
2,6,114,2,2,1,951.84,unfamfemale39.jpg
2,6,115,2,2,1,1005.74,unfamfemale15.jpg
2,6,116,2,2,1,851.62,unfammale02.jpg
2,6,117,3,2,0,753.49,unfammale35.jpg
2,6,118,3,2,0,695.32,unfamfemale39.jpg
2,6,119,3,2,0,733.23,unfamfemale26.jpg
2,6,120,3,3,1,739.05,capture003 copy.jpg
2,6,121,2,3,0,864.95,unfamfemale04.jpg
2,6,122,3,2,0,838.85,unfamfemale24.jpg
2,6,123,3,3,1,684.67,unfammale08.jpg
2,6,124,3,2,0,730.53,capture010 copy.jpg
2,6,125,3,2,0,808.47,capture002 copy.jpg
2,6,126,2,2,1,1054.34,unfamfemale06.jpg
2,6,127,2,2,1,724.21,unfamfemale37.jpg
2,6,128,3,3,1,890.05,unfamfemale21.jpg
2,6,129,3,2,0,879.91,unfammale16.jpg
2,6,130,3,3,1,933.83,unfamfemale15.jpg
2,6,131,3,3,1,835.65,capture013 copy.jpg
2,6,132,3,3,1,985.55,unfamfemale08.jpg
2,6,133,3,3,1,775.38,unfamfemale01.jpg
2,6,134,3,3,1,805.31,unfamfemale06.jpg
2,6,135,3,3,1,891.18,unfammale02.jpg
2,6,136,3,2,0,1025.06,capture016 copy.jpg
2,6,137,3,2,0,766.9,unfamfemale17.jpg
2,6,138,2,2,1,860.79,unfammale14.jpg
2,6,139,3,3,1,722.64,unfammale14.jpg
2,6,140,3,3,1,696.54,unfamfemale32.jpg
2,6,141,3,3,1,806.39,unfammale23.jpg
2,6,142,3,3,1,1004.27,unfammale21.jpg
2,6,143,3,3,1,698.15,unfamfemale04.jpg
2,6,144,3,3,1,679.96,unfamfemale37.jpg
2,7,1,1,1,1,680.04,capture003 copy.jpg
2,7,2,1,1,1,629.84,unfamfemale08.jpg
2,7,3,1,1,1,667.76,capture001 copy.jpg
2,7,4,1,1,1,785.64,unfamfemale20.jpg
2,7,5,1,1,1,575.48,unfammale02.jpg
2,7,6,1,1,1,925.38,unfamfemale17.jpg
2,7,7,2,2,1,883.27,capture001 copy.jpg
2,7,8,1,1,1,625.09,capture011 copy.jpg
2,7,9,1,1,1,583,unfammale23.jpg
2,7,10,1,1,1,548.83,unfamfemale39.jpg
2,7,11,1,1,1,602.73,capture017 copy.jpg
2,7,12,1,1,1,728.62,capture005 copy.jpg
2,7,13,1,1,1,590.44,unfamfemale24.jpg
2,7,14,1,1,1,708.3,unfamfemale37.jpg
2,7,15,1,1,1,714.21,unfammale39.jpg
2,7,16,1,1,1,863.95,unfamfemale06.jpg
2,7,17,1,1,1,637.93,unfamfemale26.jpg
2,7,18,1,1,1,571.84,capture016 copy.jpg
2,7,19,1,1,1,569.7,capture013 copy.jpg
2,7,20,1,1,1,714.25,unfamfemale32.jpg
2,7,21,1,1,1,656.11,capture015 copy.jpg
2,7,22,1,1,1,757.96,unfamfemale21.jpg
2,7,23,1,1,1,635.87,unfamfemale15.jpg
2,7,24,2,2,1,737.74,unfammale39.jpg
2,7,25,1,1,1,647.58,unfammale28.jpg
2,7,26,2,1,0,765.48,capture003 copy.jpg
2,7,27,2,2,1,787.3,capture013 copy.jpg
2,7,28,1,1,1,721.24,capture012 copy.jpg
2,7,29,1,1,1,775.09,unfamfemale01.jpg
2,7,30,1,1,1,796.95,unfammale33.jpg
2,7,31,1,1,1,738.8,unfamfemale04.jpg
2,7,32,2,2,1,896.67,capture016 copy.jpg
2,7,33,1,1,1,918.58,unfammale25.jpg
2,7,34,1,1,1,932.47,unfammale18.jpg
2,7,35,1,1,1,778.32,unfamfemale03.jpg
2,7,36,1,1,1,824.18,unfammale09.jpg
2,7,37,1,1,1,806.07,capture021 copy.jpg
2,7,38,1,1,1,715.95,unfammale14.jpg
2,7,39,1,1,1,689.76,capture010 copy.jpg
2,7,40,2,2,1,607.69,unfammale28.jpg
2,7,41,2,2,1,893.57,unfamfemale04.jpg
2,7,42,2,2,1,915.41,unfamfemale21.jpg
2,7,43,2,2,1,953.28,unfammale25.jpg
2,7,44,2,2,1,679.15,unfammale02.jpg
2,7,45,1,2,0,717.03,capture020 copy.jpg
2,7,46,3,0,0,0,unfamfemale21.jpg
2,7,47,1,2,0,72.71,unfammale08.jpg
2,7,48,1,1,1,870.64,unfammale12.jpg
2,7,49,1,1,1,852.28,capture002 copy.jpg
2,7,50,1,1,1,754.41,unfamfemale38.jpg
2,7,51,1,1,1,776.25,unfammale38.jpg
2,7,52,2,2,1,710.16,capture021 copy.jpg
2,7,53,2,2,1,867.99,unfamfemale08.jpg
2,7,54,1,1,1,897.9,unfammale16.jpg
2,7,55,1,1,1,815.74,unfamfemale05.jpg
2,7,56,1,1,1,773.64,unfammale19.jpg
2,7,57,1,1,1,811.51,unfammale05.jpg
2,7,58,2,2,1,793.32,capture011 copy.jpg
2,7,59,2,1,0,735.21,unfamfemale24.jpg
2,7,60,2,2,1,781.09,unfammale05.jpg
2,7,61,2,2,1,698.97,unfammale19.jpg
2,7,62,2,2,1,816.86,unfammale12.jpg
2,7,63,2,2,1,798.74,capture005 copy.jpg
2,7,64,2,2,1,836.62,unfammale33.jpg
2,7,65,2,2,1,826.46,unfamfemale20.jpg
2,7,66,2,2,1,728.3,unfamfemale37.jpg
2,7,67,2,2,1,750.18,unfamfemale15.jpg
2,7,68,3,3,1,780.1,unfammale33.jpg
2,7,69,2,2,1,793.97,unfamfemale05.jpg
2,7,70,2,1,0,991.79,capture015 copy.jpg
2,7,71,2,2,1,765.72,unfammale14.jpg
2,7,72,3,2,0,859.57,unfammale39.jpg
2,7,73,3,3,1,873.42,unfamfemale20.jpg
2,7,74,3,3,1,767.32,capture011 copy.jpg
2,7,75,2,2,1,909.18,capture020 copy.jpg
2,7,76,2,2,1,795.07,unfamfemale32.jpg
2,7,77,2,2,1,816.95,unfamfemale38.jpg
2,7,78,1,1,1,966.79,unfamfemale10.jpg
2,7,79,1,1,1,804.69,unfammale35.jpg
2,7,80,3,2,0,762.5,capture003 copy.jpg
2,7,81,2,2,1,920.43,unfammale35.jpg
2,7,82,3,3,1,1054.29,unfammale28.jpg
2,7,83,2,2,1,980.16,unfammale08.jpg
2,7,84,2,2,1,818.05,capture010 copy.jpg
2,7,85,1,1,1,719.91,unfammale21.jpg
2,7,86,2,1,0,717.77,unfamfemale39.jpg
2,7,87,2,1,0,731.65,unfamfemale06.jpg
2,7,88,2,2,1,793.49,unfammale38.jpg
2,7,89,2,2,1,735.4,capture017 copy.jpg
2,7,90,2,3,0,805.23,unfamfemale10.jpg
2,7,91,3,2,0,1011.14,capture016 copy.jpg
2,7,92,2,2,1,880.98,capture012 copy.jpg
2,7,93,3,2,0,902.9,capture010 copy.jpg
2,7,94,1,1,1,964.69,unfamfemale40.jpg
2,7,95,2,1,0,818.63,unfammale18.jpg
2,7,96,3,2,0,872.5,unfammale05.jpg
2,7,97,3,3,1,998.2,unfamfemale32.jpg
2,7,98,2,2,1,860.25,unfamfemale03.jpg
2,7,99,2,2,1,1010.13,unfamfemale01.jpg
2,7,100,2,2,1,911.91,unfamfemale17.jpg
2,7,101,3,2,0,877.86,capture001 copy.jpg
2,7,102,3,3,1,835.74,capture020 copy.jpg
2,7,103,3,2,0,857.56,unfamfemale39.jpg
2,7,104,2,2,1,879.43,capture002 copy.jpg
2,7,105,3,3,1,701.33,unfammale08.jpg
2,7,106,3,2,0,747.21,unfammale12.jpg
2,7,107,3,2,0,1001.08,unfamfemale01.jpg
2,7,108,3,2,0,982.91,unfamfemale24.jpg
2,7,109,2,2,1,740.78,unfammale16.jpg
2,7,110,3,2,0,1122.71,capture005 copy.jpg
2,7,111,2,2,1,768.57,unfammale09.jpg
2,7,112,3,2,0,766.41,capture012 copy.jpg
2,7,113,3,2,0,764.27,unfamfemale03.jpg
2,7,114,3,3,1,730.19,unfammale14.jpg
2,7,115,2,3,0,728.06,unfammale23.jpg
2,7,116,3,3,1,805.9,unfamfemale08.jpg
2,7,117,3,3,1,1027.81,capture002 copy.jpg
2,7,118,3,2,0,993.68,unfamfemale37.jpg
2,7,119,3,3,1,727.47,unfamfemale17.jpg
2,7,120,3,2,0,861.42,unfamfemale15.jpg
2,7,121,3,2,0,747.29,unfammale38.jpg
2,7,122,3,3,1,705.16,unfammale23.jpg
2,7,123,3,3,1,783.01,capture015 copy.jpg
2,7,124,3,3,1,908.9,unfammale16.jpg
2,7,125,2,2,1,882.78,unfamfemale26.jpg
2,7,126,3,3,1,896.64,unfamfemale10.jpg
2,7,127,3,3,1,753.2,unfamfemale38.jpg
2,7,128,2,2,1,959.04,unfammale21.jpg
2,7,129,3,2,0,900.94,unfamfemale06.jpg
2,7,130,3,3,1,850.75,unfammale09.jpg
2,7,131,3,3,1,904.68,capture013 copy.jpg
2,7,132,2,2,1,790.49,unfamfemale40.jpg
2,7,133,3,2,0,839.94,unfammale19.jpg
2,7,134,3,0,0,0,unfammale21.jpg
2,7,135,3,2,0,464.15,unfammale18.jpg
2,7,136,3,3,1,694.03,capture017 copy.jpg
2,7,137,3,2,0,803.87,unfammale25.jpg
2,7,138,3,3,1,801.74,unfammale02.jpg
2,7,139,3,2,0,847.63,unfamfemale04.jpg
2,7,140,3,2,0,797.5,unfamfemale40.jpg
2,7,141,3,2,0,875.35,capture021 copy.jpg
2,7,142,3,2,0,1041.25,unfammale35.jpg
2,7,143,3,3,1,943.08,unfamfemale26.jpg
2,7,144,3,3,1,652.97,unfamfemale05.jpg
2,8,1,1,1,1,623.09,unfammale23.jpg
2,8,2,1,1,1,332.91,unfammale14.jpg
2,8,3,1,1,1,466.84,unfammale05.jpg
2,8,4,1,1,1,408.69,unfamfemale05.jpg
2,8,5,1,1,1,390.58,unfammale25.jpg
2,8,6,1,1,1,444.42,unfammale08.jpg
2,8,7,1,1,1,466.29,capture011 copy.jpg
2,8,8,2,1,0,672.14,unfamfemale05.jpg
2,8,9,1,1,1,670.04,capture003 copy.jpg
2,8,10,1,1,1,515.9,unfamfemale06.jpg
2,8,11,1,1,1,649.82,unfamfemale08.jpg
2,8,12,1,1,1,631.67,unfammale16.jpg
2,8,13,2,1,0,749.51,unfammale05.jpg
2,8,14,1,1,1,843.43,capture016 copy.jpg
2,8,15,1,1,1,929.31,unfammale39.jpg
2,8,16,2,2,1,807.17,unfammale16.jpg
2,8,17,2,2,1,869.03,unfammale23.jpg
2,8,18,1,1,1,706.92,unfammale38.jpg
2,8,19,1,1,1,616.79,unfammale33.jpg
2,8,20,1,1,1,726.67,unfamfemale20.jpg
2,8,21,1,1,1,748.54,unfamfemale04.jpg
2,8,22,2,1,0,770.39,unfamfemale06.jpg
2,8,23,2,1,0,776.28,unfamfemale08.jpg
2,8,24,1,1,1,662.15,capture005 copy.jpg
2,8,25,1,1,1,651.98,unfamfemale39.jpg
2,8,26,1,2,0,721.88,unfamfemale26.jpg
2,8,27,1,1,1,615.73,unfamfemale24.jpg
2,8,28,1,1,1,725.64,unfamfemale15.jpg
2,8,29,1,1,1,659.48,capture002 copy.jpg
2,8,30,1,1,1,745.38,unfammale18.jpg
2,8,31,2,1,0,967.21,capture016 copy.jpg
2,8,32,3,2,0,1061.14,unfamfemale05.jpg
2,8,33,2,2,1,866.94,unfammale38.jpg
2,8,34,1,1,1,840.82,capture015 copy.jpg
2,8,35,1,1,1,862.7,unfamfemale21.jpg
2,8,36,3,2,0,748.61,unfamfemale08.jpg
2,8,37,1,1,1,1098.44,unfammale12.jpg
2,8,38,2,2,1,808.36,unfamfemale20.jpg
2,8,39,1,2,0,918.19,unfamfemale32.jpg
2,8,40,1,2,0,1060.05,unfamfemale37.jpg
2,8,41,2,2,1,785.92,unfamfemale15.jpg
2,8,42,1,1,1,807.81,capture013 copy.jpg
2,8,43,1,1,1,637.66,capture021 copy.jpg
2,8,44,3,2,0,739.56,unfammale23.jpg
2,8,45,2,1,0,945.45,unfammale18.jpg
2,8,46,2,3,0,967.3,capture021 copy.jpg
2,8,47,2,2,1,701.16,unfammale08.jpg
2,8,48,1,1,1,1083.02,unfamfemale17.jpg
2,8,49,2,1,0,736.94,capture015 copy.jpg
2,8,50,1,1,1,766.79,unfamfemale38.jpg
2,8,51,2,1,0,692.63,unfammale25.jpg
2,8,52,1,1,1,826.56,unfammale02.jpg
2,8,53,2,2,1,880.4,unfammale39.jpg
2,8,54,2,2,1,918.31,unfammale02.jpg
2,8,55,1,1,1,812.15,capture012 copy.jpg
2,8,56,2,2,1,826.05,unfamfemale04.jpg
2,8,57,3,2,0,919.92,unfammale05.jpg
2,8,58,2,2,1,861.75,unfammale33.jpg
2,8,59,1,1,1,891.64,unfamfemale10.jpg
2,8,60,2,2,1,953.47,capture012 copy.jpg
2,8,61,2,2,1,1015.41,unfamfemale10.jpg
2,8,62,1,1,1,901.23,unfamfemale40.jpg
2,8,63,2,1,0,811.14,capture011 copy.jpg
2,8,64,2,1,0,697.01,unfammale14.jpg
2,8,65,1,1,1,878.84,unfammale21.jpg
2,8,66,1,1,1,916.76,unfammale35.jpg
2,8,67,1,1,1,1034.64,capture010 copy.jpg
2,8,68,1,2,0,792.49,unfammale09.jpg
2,8,69,2,1,0,686.37,unfamfemale24.jpg
2,8,70,3,2,0,852.22,unfammale02.jpg
2,8,71,2,1,0,770.07,unfammale12.jpg
2,8,72,1,1,1,759.95,unfamfemale01.jpg
2,8,73,2,1,0,957.86,unfamfemale37.jpg
2,8,74,2,3,0,907.74,unfamfemale32.jpg
2,8,75,1,2,0,785.6,capture017 copy.jpg
2,8,76,1,2,0,831.48,capture001 copy.jpg
2,8,77,3,2,0,949.35,capture012 copy.jpg
2,8,78,3,2,0,771.16,unfamfemale04.jpg
2,8,79,1,1,1,737.09,capture020 copy.jpg
2,8,80,2,2,1,926.94,capture005 copy.jpg
2,8,81,2,1,0,948.82,capture003 copy.jpg
2,8,82,2,3,0,898.71,capture010 copy.jpg
2,8,83,2,2,1,760.57,capture001 copy.jpg
2,8,84,2,2,1,878.43,unfamfemale38.jpg
2,8,85,1,2,0,1076.3,unfamfemale03.jpg
2,8,86,2,1,0,882.19,unfamfemale40.jpg
2,8,87,1,2,0,1039.95,unfammale19.jpg
2,8,88,3,3,1,1221.89,unfamfemale38.jpg
2,8,89,1,2,0,667.8,unfammale28.jpg
2,8,90,2,1,0,913.66,unfamfemale26.jpg
2,8,91,2,1,0,863.54,unfamfemale21.jpg
2,8,92,2,2,1,813.37,unfammale28.jpg
2,8,93,3,2,0,811.29,capture016 copy.jpg
2,8,94,3,3,1,1065.16,unfammale33.jpg
2,8,95,2,2,1,847.03,unfammale35.jpg
2,8,96,2,2,1,780.91,capture013 copy.jpg
2,8,97,2,1,0,882.76,unfamfemale39.jpg
2,8,98,3,2,0,712.64,unfamfemale06.jpg
2,8,99,2,2,1,774.52,capture002 copy.jpg
2,8,100,3,3,1,1148.36,unfammale12.jpg
2,8,101,3,2,0,834.23,unfamfemale37.jpg
2,8,102,3,3,1,768.07,capture010 copy.jpg
2,8,103,3,3,1,798.01,unfamfemale32.jpg
2,8,104,3,2,0,811.87,capture011 copy.jpg
2,8,105,2,2,1,825.69,capture017 copy.jpg
2,8,106,3,2,0,895.62,unfammale18.jpg
2,8,107,2,2,1,781.49,unfammale09.jpg
2,8,108,3,3,1,915.36,capture021 copy.jpg
2,8,109,3,3,1,945.24,unfammale16.jpg
2,8,110,3,2,0,839.1,unfammale38.jpg
2,8,111,3,2,0,772.94,capture015 copy.jpg
2,8,112,3,3,1,786.8,unfammale39.jpg
2,8,113,2,3,0,816.69,unfammale19.jpg
2,8,114,2,2,1,854.6,unfamfemale01.jpg
2,8,115,3,2,0,868.41,unfammale08.jpg
2,8,116,3,2,0,962.34,unfamfemale15.jpg
2,8,117,2,2,1,872.18,unfammale21.jpg
2,8,118,2,1,0,846.03,unfamfemale03.jpg
2,8,119,3,2,0,803.9,capture001 copy.jpg
2,8,120,3,2,0,857.82,unfammale28.jpg
2,8,121,3,1,0,775.62,unfammale14.jpg
2,8,122,3,2,0,693.51,unfamfemale10.jpg
2,8,123,3,2,0,915.42,capture005 copy.jpg
2,8,124,3,3,1,681.3,capture017 copy.jpg
2,8,125,3,2,0,799.18,unfamfemale20.jpg
2,8,126,2,3,0,869.05,unfamfemale17.jpg
2,8,127,3,2,0,1002.93,unfamfemale21.jpg
2,8,128,3,3,1,752.74,unfammale09.jpg
2,8,129,3,2,0,750.62,unfamfemale40.jpg
2,8,130,2,2,1,764.5,capture020 copy.jpg
2,8,131,3,3,1,906.38,unfammale35.jpg
