SID,RepTime,Trial,Resp,Corr,RT,ImgName
1,1,1,2,1,1226.19,nonwin2_8.png
1,1,2,2,1,752.28,nonwin2_4.png
1,1,3,2,1,673,nonwex4.png
1,1,4,2,1,745.71,nonwex2_9.png
1,1,5,2,1,634.42,nonwin7.png
1,1,6,2,1,667.2,nonwex8.png
1,1,7,2,1,691.93,nonwin8.png
1,1,8,2,1,764.61,nonwin2_2.png
1,1,9,2,1,653.33,nonwex2.png
1,1,10,1,1,734.11,nonwex2_5.png
1,1,11,2,1,729.53,nonwex3.png
1,1,12,2,1,620.88,nonwex2_7.png
1,1,13,2,1,688.31,nonwex2_8.png
1,1,14,2,1,683.66,nonwex11.png
1,1,15,2,1,655.1,nonwex2_11.png
1,1,16,2,1,714.55,nonwin2.png
1,1,17,1,1,701.95,nonwin2_1.png
1,1,18,2,1,601.32,nonwin1.png
1,1,19,2,1,604.72,nonwin6.png
1,1,20,2,1,696.11,nonwex2_6.png
1,1,21,2,1,787.52,nonwin2_7.png
1,1,22,2,1,550.96,nonwex6.png
1,1,23,2,1,722.36,nonwin12.png
1,1,24,2,1,589.78,nonwin2_11.png
1,2,1,1,1,666.42,nonwex2_9.png
1,2,2,2,1,539.14,nonwex3.png
1,2,3,1,1,627.89,nonwex2_5.png
1,2,4,2,1,476.64,nonwin2.png
1,2,5,1,1,725.37,nonwin1.png
1,2,6,2,1,454.06,nonwin8.png
1,2,7,1,1,566.86,nonwin7.png
1,2,8,1,1,599.6,nonwin2_1.png
1,2,9,2,1,512.3,nonwin12.png
1,2,10,2,1,481.02,nonwex8.png
1,2,11,2,1,505.78,nonwex6.png
1,2,12,2,1,658.49,nonwin2_2.png
1,2,13,2,1,659.25,nonwex2_6.png
1,2,14,2,1,779.98,nonwin2_8.png
1,2,15,2,1,764.68,nonwex11.png
1,2,16,2,1,669.46,nonwin6.png
1,2,17,2,1,542.2,nonwex2.png
1,2,18,2,1,830.88,nonwex4.png
1,2,19,2,1,791.62,nonwin2_4.png
1,2,20,2,1,648.4,nonwin2_7.png
1,2,21,2,1,681.09,nonwex2_8.png
1,2,22,2,1,641.86,nonwin2_11.png
1,2,23,2,1,546.55,nonwex2_7.png
1,2,24,2,1,579.34,nonwex2_11.png
1,3,1,2,1,780.88,nonwex3.png
1,3,2,2,1,541.64,nonwex2_7.png
1,3,3,2,1,566.35,nonwin2_7.png
1,3,4,2,1,527.1,nonwex2_6.png
1,3,5,1,1,559.84,nonwex2_9.png
1,3,6,1,1,808.6,nonwex2.png
1,3,7,1,1,643.97,nonwin2_1.png
1,3,8,2,1,628.72,nonwin2_11.png
1,3,9,2,1,541.43,nonwin8.png
1,3,10,1,1,630.2,nonwin2_2.png
1,3,11,1,1,814.89,nonwin1.png
1,3,12,2,1,839.69,nonwin7.png
1,3,13,2,1,712.38,nonwex2_11.png
1,3,14,2,1,689.13,nonwin12.png
1,3,15,1,1,561.89,nonwex2_5.png
1,3,16,2,1,690.63,nonwex6.png
1,3,17,2,1,795.36,nonwex11.png
1,3,18,1,1,876.1,nonwex4.png
1,3,19,1,1,924.83,nonwin2_4.png
1,3,20,2,1,829.55,nonwin6.png
1,3,21,2,1,798.28,nonwin2_8.png
1,3,22,2,1,711,nonwin2.png
1,3,23,1,1,687.72,nonwex2_8.png
1,3,24,2,1,696.5,nonwex8.png
1,4,1,1,1,551.43,nonwin2_1.png
1,4,2,1,1,624.13,nonwex11.png
1,4,3,1,1,672.87,nonwin1.png
1,4,4,2,1,665.61,nonwin2.png
1,4,5,1,1,514.37,nonwin12.png
1,4,6,2,1,515.08,nonwin2_11.png
1,4,7,1,1,627.82,nonwin6.png
1,4,8,1,1,820.53,nonwin2_8.png
1,4,9,2,1,733.29,nonwin2_4.png
1,4,10,1,1,501.99,nonwin2_2.png
1,4,11,2,1,542.78,nonwex4.png
1,4,12,1,1,559.51,nonwex2_5.png
1,4,13,2,1,520.25,nonwin8.png
1,4,14,2,1,616.94,nonwex3.png
1,4,15,2,1,697.73,nonwin2_7.png
1,4,16,2,1,698.46,nonwex8.png
1,4,17,1,1,530.95,nonwin7.png
1,4,18,2,1,555.93,nonwex2.png
1,4,19,2,1,868.67,nonwex2_6.png
1,4,20,1,1,565.4,nonwex2_9.png
1,4,21,1,1,694.14,nonwex2_8.png
1,4,22,2,1,622.88,nonwex2_7.png
1,4,23,2,1,599.59,nonwex2_11.png
1,4,24,2,1,640.3,nonwex6.png
1,5,1,1,1,508.4,nonwin7.png
1,5,2,1,1,661.18,nonwin2.png
1,5,3,2,1,589.96,nonwex2_11.png
1,5,4,2,1,574.69,nonwin2_4.png
1,5,5,1,1,487.42,nonwex2_9.png
1,5,6,1,1,504.15,nonwin6.png
1,5,7,2,1,568.89,nonwex11.png
1,5,8,1,1,481.63,nonwin2_2.png
1,5,9,2,1,626.35,nonwin8.png
1,5,10,1,1,563.1,nonwin2_1.png
1,5,11,2,1,531.82,nonwin2_7.png
1,5,12,2,1,620.55,nonwex4.png
1,5,13,2,1,565.3,nonwex3.png
1,5,14,2,1,638,nonwex2_6.png
1,5,15,2,1,598.77,nonwex8.png
1,5,16,1,1,735.51,nonwin2_11.png
1,5,17,1,1,602.87,nonwex2_5.png
1,5,18,2,1,499.63,nonwex6.png
1,5,19,1,1,524.35,nonwex2_8.png
1,5,20,1,1,653.07,nonwin2_8.png
1,5,21,2,1,461.8,nonwex2_7.png
1,5,22,1,1,710.58,nonwex2.png
1,5,23,1,1,687.3,nonwin1.png
1,5,24,0,0,0,nonwin12.png
1,6,1,1,1,593.64,nonwin2_7.png
1,6,2,1,1,498.36,nonwin1.png
1,6,3,1,1,475.09,nonwex2.png
1,6,4,1,1,547.83,nonwex4.png
1,6,5,2,1,684.51,nonwex2_7.png
1,6,6,1,1,573.29,nonwin12.png
1,6,7,2,1,542.02,nonwex2_11.png
1,6,8,1,1,518.71,nonwex8.png
1,6,9,1,1,511.49,nonwin2_8.png
1,6,10,0,0,0,nonwin2_4.png
1,6,11,1,1,432.95,nonwex2_5.png
1,6,12,1,1,465.69,nonwin2.png
1,6,13,1,1,474.42,nonwex6.png
1,6,14,2,1,619.09,nonwex3.png
1,6,15,0,0,0,nonwin2_1.png
1,6,16,1,1,500.59,nonwex2_9.png
1,6,17,1,1,501.28,nonwin6.png
1,6,18,1,1,526.03,nonwin2_2.png
1,6,19,0,0,0,nonwex11.png
1,6,20,0,0,0,nonwex2_8.png
1,6,21,0,0,0,nonwex2_6.png
1,6,22,1,1,304.98,nonwin2_11.png
1,6,23,2,1,641.73,nonwin8.png
1,6,24,1,1,586.46,nonwin7.png
1,7,1,1,1,684.24,nonwin7.png
1,7,2,1,1,700.97,nonwin2_8.png
1,7,3,2,1,557.7,nonwex3.png
1,7,4,1,1,686.39,nonwin2_4.png
1,7,5,0,0,0,nonwin2_11.png
1,7,6,0,0,0,nonwex2_8.png
1,7,7,0,0,0,nonwex8.png
1,7,8,1,1,553.31,nonwin1.png
1,7,9,0,0,0,nonwin2.png
1,7,10,0,0,0,nonwex4.png
1,7,11,0,0,0,nonwex2_11.png
1,7,12,1,1,324.27,nonwin8.png
1,7,13,0,0,0,nonwin2_7.png
1,7,14,0,0,0,nonwex6.png
1,7,15,1,1,390.43,nonwin6.png
1,7,16,0,0,0,nonwex2_9.png
1,7,17,1,1,367.89,nonwex2_7.png
1,7,18,1,1,448.61,nonwin2_1.png
1,7,19,0,0,0,nonwin12.png
1,7,20,1,1,346.08,nonwex2_5.png
1,7,21,0,0,0,nonwex2_6.png
1,7,22,0,0,0,nonwin2_2.png
1,7,23,0,0,0,nonwex11.png
1,7,24,0,0,0,nonwex2.png
1,8,1,1,1,476.26,nonwin2_1.png
1,8,2,1,1,404.98,nonwin8.png
1,8,3,0,0,0,nonwex2.png
1,8,4,0,0,0,nonwin2_11.png
1,8,5,1,1,223.17,nonwex3.png
1,8,6,1,1,295.89,nonwex2_7.png
1,8,7,1,1,624.63,nonwex2_11.png
1,8,8,1,1,497.37,nonwin2.png
1,8,9,1,1,362.09,nonwin2_7.png
1,8,10,1,1,370.77,nonwin2_2.png
1,8,11,1,1,427.54,nonwex8.png
1,8,12,1,1,492.28,nonwin2_8.png
1,8,13,1,1,413.01,nonwex2_6.png
1,8,14,1,1,365.71,nonwex4.png
1,8,15,1,1,406.42,nonwin6.png
1,8,16,1,1,311.2,nonwin7.png
1,8,17,1,1,239.87,nonwex2_8.png
1,8,18,1,1,200.62,nonwin2_4.png
1,8,19,1,1,273.34,nonwex6.png
1,8,20,1,1,258.08,nonwin12.png
1,8,21,1,1,285.48,nonwex2_9.png
1,8,22,1,1,342.21,nonwex11.png
1,8,23,1,1,278.92,nonwin1.png
1,8,24,1,1,287.71,nonwex2_5.png
2,1,1,2,1,1367.98,nonwin2_6.png
2,1,2,1,1,867.55,nonwin2.png
2,1,3,1,1,679.72,nonwex5.png
2,1,4,2,1,731.98,nonwex8.png
2,1,5,1,1,888.21,nonwex2_5.png
2,1,6,1,1,772.43,nonwex9.png
2,1,7,2,1,648.68,nonwex2_11.png
2,1,8,2,1,692.9,nonwex7.png
2,1,9,2,1,801.17,nonwex2_1.png
2,1,10,1,1,749.35,nonwin4.png
2,1,11,1,1,809.63,nonwex3.png
2,1,12,1,1,901.86,nonwin1.png
2,1,13,2,1,650.09,nonwex2_9.png
2,1,14,1,1,654.3,nonwex2_12.png
2,1,15,1,1,730.54,nonwin9.png
2,1,16,2,1,814.78,nonwex2.png
2,1,17,1,1,762.98,nonwin2_11.png
2,1,18,2,1,751.23,nonwex2_3.png
2,1,19,1,1,699.42,nonwex2_8.png
2,1,20,1,1,759.63,nonwin2_12.png
2,1,21,2,1,859.87,nonwex10.png
2,1,22,1,1,752.11,nonwin6.png
2,1,23,1,1,748.31,nonwin11.png
2,1,24,2,1,664.62,nonwin2_7.png
2,2,1,1,1,660.8,nonwex3.png
2,2,2,2,1,913.04,nonwex2.png
2,2,3,1,1,725.31,nonwin2_6.png
2,2,4,1,1,745.53,nonwex2_12.png
2,2,5,2,1,589.74,nonwex2_11.png
2,2,6,1,1,682,nonwex7.png
2,2,7,1,1,678.18,nonwin4.png
2,2,8,2,1,650.44,nonwex8.png
2,2,9,1,1,822.65,nonwex2_3.png
2,2,10,1,1,642.87,nonwin6.png
2,2,11,1,1,703.15,nonwin2_12.png
2,2,12,2,1,955.34,nonwex2_5.png
2,2,13,1,1,879.61,nonwex10.png
2,2,14,1,1,827.83,nonwin1.png
2,2,15,2,1,584.07,nonwin2_7.png
2,2,16,2,1,732.26,nonwex2_9.png
2,2,17,1,1,656.52,nonwex2_8.png
2,2,18,2,1,940.71,nonwin11.png
2,2,19,1,1,736.99,nonwex9.png
2,2,20,2,1,821.22,nonwex2_1.png
2,2,21,1,1,865.39,nonwin9.png
2,2,22,1,1,853.62,nonwex5.png
2,2,23,1,1,705.85,nonwin2.png
2,2,24,1,1,782.14,nonwin2_11.png
2,3,1,1,1,784.9,nonwex2_1.png
2,3,2,1,1,661.16,nonwin2_6.png
2,3,3,1,1,593.38,nonwex2_5.png
2,3,4,1,1,629.61,nonwex3.png
2,3,5,2,1,665.82,nonwex2_3.png
2,3,6,2,1,710.02,nonwex2.png
2,3,7,2,1,682.25,nonwex2_11.png
2,3,8,2,1,942.49,nonwin9.png
2,3,9,2,1,698.77,nonwin2_7.png
2,3,10,2,1,695,nonwex2_9.png
2,3,11,1,1,787.24,nonwin11.png
2,3,12,1,1,815.46,nonwex2_12.png
2,3,13,1,1,779.64,nonwin2_11.png
2,3,14,1,1,815.9,nonwex7.png
2,3,15,1,1,812.15,nonwin2_12.png
2,3,16,1,1,728.35,nonwex5.png
2,3,17,1,1,796.59,nonwex10.png
2,3,18,1,1,944.81,nonwin4.png
2,3,19,1,1,885.07,nonwin2.png
2,3,20,1,1,897.31,nonwex2_8.png
2,3,21,1,1,781.51,nonwin6.png
2,3,22,2,1,697.28,nonwex8.png
2,3,23,1,1,750,nonwin1.png
2,3,24,1,1,682.18,nonwex9.png
2,4,1,1,1,798.9,nonwin11.png
2,4,2,2,1,771.13,nonwex2_3.png
2,4,3,2,1,615.41,nonwin2_7.png
2,4,4,1,1,691.65,nonwin9.png
2,4,5,1,1,719.86,nonwex2_1.png
2,4,6,1,1,780.07,nonwex7.png
2,4,7,1,1,768.32,nonwin1.png
2,4,8,1,1,700.58,nonwin2.png
2,4,9,1,1,600.8,nonwin2_6.png
2,4,10,1,1,637.01,nonwex3.png
2,4,11,2,1,673.23,nonwex2_9.png
2,4,12,2,1,637.45,nonwex2_11.png
2,4,13,1,1,777.71,nonwex2_12.png
2,4,14,1,1,845.96,nonwin2_12.png
2,4,15,2,1,962.15,nonwex8.png
2,4,16,1,1,534.38,nonwin6.png
2,4,17,1,1,698.57,nonwex2_8.png
2,4,18,1,1,774.88,nonwex2_5.png
2,4,19,1,1,739.08,nonwin4.png
2,4,20,1,1,775.3,nonwin2_11.png
2,4,21,1,1,787.51,nonwex10.png
2,4,22,1,1,679.78,nonwex9.png
2,4,23,1,1,651.98,nonwex5.png
2,4,24,1,1,752.23,nonwex2.png
2,5,1,2,1,563.87,nonwex2_11.png
2,5,2,2,1,664.09,nonwex2_9.png
2,5,3,2,1,596.32,nonwin2_7.png
2,5,4,1,1,680.58,nonwex2_1.png
2,5,5,1,1,668.81,nonwex5.png
2,5,6,1,1,809.01,nonwex2.png
2,5,7,1,1,757.27,nonwex10.png
2,5,8,1,1,817.47,nonwin2_12.png
2,5,9,1,1,829.71,nonwin2_6.png
2,5,10,1,1,657.95,nonwex3.png
2,5,11,1,1,662.18,nonwex2_8.png
2,5,12,1,1,674.42,nonwin4.png
2,5,13,1,1,774.65,nonwin1.png
2,5,14,1,1,594.87,nonwin2.png
2,5,15,1,1,751.09,nonwin2_11.png
2,5,16,2,1,675.34,nonwex7.png
2,5,17,2,1,695.52,nonwex2_3.png
2,5,18,1,1,595.75,nonwex2_5.png
2,5,19,2,1,720.01,nonwex8.png
2,5,20,1,1,716.26,nonwin11.png
2,5,21,1,1,664.49,nonwex9.png
2,5,22,1,1,604.68,nonwin6.png
2,5,23,1,1,768.91,nonwin9.png
2,5,24,1,1,717.13,nonwex2_12.png
2,6,1,0,0,0,nonwex2_8.png
2,6,2,1,1,787.8,nonwin4.png
2,6,3,1,1,879.99,nonwin11.png
2,6,4,1,1,756.26,nonwex2_5.png
2,6,5,1,1,704.49,nonwin6.png
2,6,6,1,1,676.66,nonwin2_11.png
2,6,7,1,1,864.91,nonwin9.png
2,6,8,2,1,581.14,nonwex8.png
2,6,9,1,1,625.42,nonwex5.png
2,6,10,2,1,709.64,nonwex2_9.png
2,6,11,1,1,577.86,nonwex3.png
2,6,12,2,1,678.08,nonwex7.png
2,6,13,2,1,610.32,nonwex2_3.png
2,6,14,2,1,614.56,nonwex2.png
2,6,15,2,1,594.77,nonwex2_11.png
2,6,16,1,1,663.03,nonwex2_12.png
2,6,17,1,1,699.19,nonwin2.png
2,6,18,1,1,623.49,nonwex2_1.png
2,6,19,1,1,579.7,nonwin2_6.png
2,6,20,2,1,639.88,nonwin2_7.png
2,6,21,1,1,620.17,nonwex9.png
2,6,22,1,1,880.4,nonwin2_12.png
2,6,23,1,1,644.58,nonwex10.png
2,6,24,1,1,664.87,nonwin1.png
2,7,1,1,1,641.52,nonwex2_12.png
2,7,2,1,1,725.96,nonwex2_1.png
2,7,3,1,1,586.14,nonwin4.png
2,7,4,1,1,670.42,nonwex9.png
2,7,5,1,1,594.63,nonwex10.png
2,7,6,2,1,918.86,nonwin11.png
2,7,7,2,1,755.08,nonwin2_11.png
2,7,8,1,1,607.29,nonwin2.png
2,7,9,1,1,563.57,nonwex2_8.png
2,7,10,1,1,735.81,nonwin9.png
2,7,11,2,1,604,nonwex2.png
2,7,12,2,1,576.22,nonwex2_3.png
2,7,13,1,1,492.5,nonwin6.png
2,7,14,2,1,592.71,nonwin2_7.png
2,7,15,2,1,468.94,nonwex2_11.png
2,7,16,1,1,601.14,nonwin2_12.png
2,7,17,1,1,629.34,nonwex3.png
2,7,18,1,1,625.65,nonwin1.png
2,7,19,1,1,717.86,nonwex7.png
2,7,20,1,1,434.05,nonwin2_6.png
2,7,21,1,1,398.27,nonwex5.png
2,7,22,1,1,546.51,nonwex8.png
2,7,23,1,1,558.8,nonwex2_5.png
2,7,24,2,1,714.98,nonwex2_9.png
2,8,1,1,1,637.44,nonwex2_8.png
2,8,2,1,1,761.74,nonwin2_11.png
2,8,3,2,1,581.96,nonwex8.png
2,8,4,1,1,834.15,nonwex9.png
2,8,5,1,1,870.35,nonwin2_12.png
2,8,6,2,1,602.66,nonwex2_3.png
2,8,7,1,1,622.89,nonwex2_9.png
2,8,8,1,1,803.06,nonwex5.png
2,8,9,1,1,623.27,nonwex2_1.png
2,8,10,1,1,435.56,nonwex2_5.png
2,8,11,2,1,575.81,nonwin2_7.png
2,8,12,1,1,571.99,nonwin4.png
2,8,13,1,1,592.2,nonwex7.png
2,8,14,1,1,732.47,nonwex10.png
2,8,15,1,1,552.7,nonwin2_6.png
2,8,16,1,1,484.94,nonwin6.png
2,8,17,1,1,681.12,nonwex2_12.png
2,8,18,1,1,749.43,nonwin11.png
2,8,19,1,1,505.64,nonwin2.png
2,8,20,2,1,781.89,nonwex2_11.png
2,8,21,1,1,634.05,nonwin1.png
2,8,22,2,1,710.35,nonwin9.png
2,8,23,1,1,530.57,nonwex3.png
2,8,24,2,1,630.75,nonwex2.png
3,1,1,2,1,1130.61,nonwin10.png
3,1,2,2,1,853.98,nonwin2_8.png
3,1,3,1,1,886.7,nonwex2_2.png
3,1,4,2,1,855.46,nonwin2_5.png
3,1,5,1,1,992.15,nonwex2_7.png
3,1,6,2,1,848.92,nonwex6.png
3,1,7,1,1,745.61,nonwin2_2.png
3,1,8,2,1,866.3,nonwex11.png
3,1,9,2,1,819.04,nonwin2_3.png
3,1,10,1,1,627.81,nonwex4.png
3,1,11,1,1,807.24,nonwex2_4.png
3,1,12,1,1,786.57,nonwin2_1.png
3,1,13,1,1,877.98,nonwex2_6.png
3,1,14,1,1,737.37,nonwin2_9.png
3,1,15,1,1,716.8,nonwin8.png
3,1,16,2,1,840.21,nonwin2_4.png
3,1,17,1,1,699.59,nonwex2_10.png
3,1,18,2,1,783.05,nonwin3.png
3,1,19,2,1,794.42,nonwin2_10.png
3,1,20,1,1,773.85,nonwin12.png
3,1,21,1,1,665.23,nonwex12.png
3,1,22,2,1,764.6,nonwex1.png
3,1,23,2,1,805.15,nonwin5.png
3,1,24,2,1,736.69,nonwin7.png
3,2,1,1,1,613.66,nonwex2_7.png
3,2,2,2,1,694.37,nonwin2_10.png
3,2,3,1,1,807.1,nonwex6.png
3,2,4,1,1,607.83,nonwin2_9.png
3,2,5,2,1,712.59,nonwin7.png
3,2,6,2,1,785.31,nonwex2_6.png
3,2,7,1,1,650.04,nonwex4.png
3,2,8,1,1,626.74,nonwin8.png
3,2,9,2,1,611.47,nonwin2_4.png
3,2,10,1,1,628.21,nonwin2_1.png
3,2,11,1,1,636.93,nonwin2_2.png
3,2,12,1,1,613.67,nonwex2_10.png
3,2,13,2,1,550.36,nonwin2_8.png
3,2,14,2,1,559.14,nonwin10.png
3,2,15,1,1,511.87,nonwex2_4.png
3,2,16,2,1,696.54,nonwin12.png
3,2,17,1,1,497.32,nonwex2_2.png
3,2,18,1,1,490.05,nonwex12.png
3,2,19,2,1,541.45,nonwin2_5.png
3,2,20,2,1,534.14,nonwex1.png
3,2,21,2,1,614.9,nonwin3.png
3,2,22,2,1,735.61,nonwex11.png
3,2,23,2,1,712.37,nonwin5.png
3,2,24,2,1,625.05,nonwin2_3.png
3,3,1,1,1,610.68,nonwin2_1.png
3,3,2,1,1,491.47,nonwex2_7.png
3,3,3,1,1,700.19,nonwex6.png
3,3,4,2,1,596.87,nonwin2_10.png
3,3,5,2,1,541.65,nonwin2_8.png
3,3,6,2,1,646.39,nonwin2_3.png
3,3,7,2,1,519.11,nonwin7.png
3,3,8,2,1,847.79,nonwex2_6.png
3,3,9,2,1,688.57,nonwin12.png
3,3,10,2,1,537.25,nonwex11.png
3,3,11,1,1,482.02,nonwex4.png
3,3,12,1,1,570.75,nonwin2_9.png
3,3,13,1,1,459.48,nonwex2_2.png
3,3,14,2,1,612.2,nonwin2_5.png
3,3,15,2,1,564.92,nonwin2_4.png
3,3,16,2,1,525.66,nonwex1.png
3,3,17,1,1,678.36,nonwin2_2.png
3,3,18,1,1,535.1,nonwex2_10.png
3,3,19,1,1,495.8,nonwex2_4.png
3,3,20,1,1,560.55,nonwex12.png
3,3,21,2,1,569.25,nonwin5.png
3,3,22,2,1,602,nonwin3.png
3,3,23,0,0,0,nonwin10.png
3,3,24,1,1,507.49,nonwin8.png
3,4,1,2,1,613.29,nonwin2_3.png
3,4,2,1,1,742.08,nonwex6.png
3,4,3,0,0,0,nonwex2_10.png
3,4,4,2,1,551.51,nonwin2_4.png
3,4,5,2,1,520.22,nonwin5.png
3,4,6,1,1,528.93,nonwex2_7.png
3,4,7,2,1,505.67,nonwin7.png
3,4,8,1,1,597.09,nonwex2_4.png
3,4,9,2,1,541.82,nonwex11.png
3,4,10,1,1,670.57,nonwin12.png
3,4,11,2,1,535.3,nonwin3.png
3,4,12,2,1,528.03,nonwin2_10.png
3,4,13,1,1,488.73,nonwex4.png
3,4,14,1,1,521.46,nonwin2_1.png
3,4,15,1,1,522.15,nonwex2_2.png
3,4,16,2,1,698.94,nonwex1.png
3,4,17,2,1,571.61,nonwin10.png
3,4,18,1,1,732.4,nonwex2_6.png
3,4,19,1,1,533.07,nonwin2_9.png
3,4,20,1,1,469.79,nonwin2_2.png
3,4,21,2,1,550.58,nonwin2_8.png
3,4,22,2,1,519.29,nonwin2_5.png
3,4,23,1,1,568.04,nonwin8.png
3,4,24,1,1,488.77,nonwex12.png
3,5,1,1,1,764.94,nonwin12.png
3,5,2,1,1,421.63,nonwex12.png
3,5,3,1,1,502.44,nonwin2_2.png
3,5,4,1,1,543.17,nonwex2_10.png
3,5,5,2,1,607.89,nonwin5.png
3,5,6,2,1,568.61,nonwin2_4.png
3,5,7,2,1,585.35,nonwin7.png
3,5,8,1,1,522.08,nonwin8.png
3,5,9,2,1,642.81,nonwex1.png
3,5,10,2,1,563.54,nonwin2_10.png
3,5,11,1,1,596.23,nonwex6.png
3,5,12,1,1,484.99,nonwex4.png
3,5,13,1,1,709.73,nonwex2_6.png
3,5,14,1,1,566.39,nonwin2_1.png
3,5,15,1,1,511.18,nonwex2_2.png
3,5,16,2,1,527.91,nonwex11.png
3,5,17,1,1,528.58,nonwex2_7.png
3,5,18,2,1,545.36,nonwin2_8.png
3,5,19,1,1,554.03,nonwex2_4.png
3,5,20,2,1,562.76,nonwin10.png
3,5,21,1,1,491.52,nonwin2_9.png
3,5,22,2,1,612.26,nonwin2_3.png
3,5,23,2,1,564.95,nonwin2_5.png
3,5,24,2,1,533.73,nonwin3.png
3,6,1,1,1,455.26,nonwin2_1.png
3,6,2,1,1,479.93,nonwin8.png
3,6,3,2,1,568.74,nonwin2_10.png
3,6,4,1,1,761.5,nonwex2_7.png
3,6,5,1,1,658.23,nonwex6.png
3,6,6,2,1,546.92,nonwin5.png
3,6,7,1,1,443.67,nonwex2_4.png
3,6,8,1,1,500.4,nonwin2_2.png
3,6,9,1,1,501.14,nonwex12.png
3,6,10,2,1,445.87,nonwin10.png
3,6,11,2,1,518.55,nonwin2_4.png
3,6,12,2,1,519.32,nonwex1.png
3,6,13,1,1,728.06,nonwin12.png
3,6,14,0,0,0,nonwex2_2.png
3,6,15,1,1,609.51,nonwex2_10.png
3,6,16,1,1,506.19,nonwex2_6.png
3,6,17,1,1,474.96,nonwin2_9.png
3,6,18,2,1,675.64,nonwex11.png
3,6,19,1,1,476.42,nonwex4.png
3,6,20,2,1,557.15,nonwin2_5.png
3,6,21,2,1,453.86,nonwin2_8.png
3,6,22,2,1,462.56,nonwin2_3.png
3,6,23,2,1,503.31,nonwin7.png
3,6,24,0,0,0,nonwin3.png
3,7,1,1,1,505.73,nonwex2_10.png
3,7,2,2,1,666.43,nonwin3.png
3,7,3,1,1,491.2,nonwin8.png
3,7,4,1,1,507.93,nonwin2_2.png
3,7,5,1,1,428.65,nonwex2_7.png
3,7,6,2,1,461.38,nonwin2_8.png
3,7,7,2,1,478.1,nonwin7.png
3,7,8,2,1,478.82,nonwex1.png
3,7,9,2,1,543.52,nonwin2_3.png
3,7,10,2,1,520.28,nonwex11.png
3,7,11,2,1,697.03,nonwin2_4.png
3,7,12,1,1,521.74,nonwex2_4.png
3,7,13,1,1,458.44,nonwin2_1.png
3,7,14,1,1,467.21,nonwex2_2.png
3,7,15,1,1,451.92,nonwex4.png
3,7,16,2,1,500.64,nonwin2_10.png
3,7,17,2,1,509.4,nonwin10.png
3,7,18,2,1,478.12,nonwin5.png
3,7,19,1,1,446.79,nonwin2_9.png
3,7,20,1,1,543.58,nonwex2_6.png
3,7,21,1,1,552.25,nonwex6.png
3,7,22,2,1,553.04,nonwin2_5.png
3,7,23,1,1,569.76,nonwin12.png
3,7,24,1,1,546.45,nonwex12.png
3,8,1,2,1,556.12,nonwin7.png
3,8,2,2,1,508.84,nonwin2_4.png
3,8,3,1,1,565.52,nonwin2_9.png
3,8,4,2,1,454.3,nonwex1.png
3,8,5,2,1,407.03,nonwin3.png
3,8,6,1,1,511.71,nonwex2_10.png
3,8,7,0,0,0,nonwin12.png
3,8,8,2,1,465.21,nonwin2_3.png
3,8,9,2,1,449.9,nonwin2_8.png
3,8,10,1,1,530.67,nonwin2_2.png
3,8,11,2,1,483.4,nonwin5.png
3,8,12,1,1,532.13,nonwex2_4.png
3,8,13,2,1,708.84,nonwin2_10.png
3,8,14,0,0,0,nonwex4.png
3,8,15,1,1,638.25,nonwex6.png
3,8,16,2,1,551,nonwin10.png
3,8,17,1,1,943.78,nonwex2_6.png
3,8,18,1,1,440.49,nonwex2_7.png
3,8,19,1,1,505.2,nonwin2_1.png
3,8,20,1,1,481.95,nonwex12.png
3,8,21,2,1,482.63,nonwin2_5.png
3,8,22,1,1,451.41,nonwin8.png
3,8,23,1,1,460.14,nonwex2_2.png
3,8,24,2,1,484.84,nonwex11.png
4,1,1,2,1,1065.8,nonwex1.png
4,1,2,2,1,781.29,nonwex2_4.png
4,1,3,2,1,649.59,nonwin2_6.png
4,1,4,2,1,797.76,nonwin4.png
4,1,5,1,1,858.05,nonwex2_1.png
4,1,6,2,1,1078.23,nonwin2_9.png
4,1,7,2,1,690.45,nonwex5.png
4,1,8,1,1,694.69,nonwin3.png
4,1,9,2,1,538.89,nonwin11.png
4,1,10,1,1,479.2,nonwin2_3.png
4,1,11,2,1,875.38,nonwex2_12.png
4,1,12,1,1,743.62,nonwex9.png
4,1,13,2,1,875.89,nonwin2_10.png
4,1,14,1,1,520.12,nonwex2_2.png
4,1,15,1,1,564.35,nonwex12.png
4,1,16,1,1,632.54,nonwex2_10.png
4,1,17,1,1,572.81,nonwin5.png
4,1,18,2,1,721.03,nonwin2_12.png
4,1,19,1,1,829.23,nonwex2_3.png
4,1,20,1,1,737.5,nonwin10.png
4,1,21,1,1,845.66,nonwin2_5.png
4,1,22,1,1,745.95,nonwex10.png
4,1,23,2,1,702.14,nonwin9.png
4,1,24,1,1,746.36,nonwex7.png
4,2,1,2,1,1097.55,nonwin11.png
4,2,2,1,1,605.74,nonwin2_5.png
4,2,3,2,1,785.95,nonwex2_4.png
4,2,4,2,1,670.17,nonwin2_6.png
4,2,5,2,1,690.46,nonwin2_12.png
4,2,6,2,1,694.66,nonwin2_3.png
4,2,7,2,1,674.91,nonwex7.png
4,2,8,1,1,895.14,nonwin2_10.png
4,2,9,1,1,523.38,nonwin10.png
4,2,10,1,1,607.61,nonwex2_1.png
4,2,11,2,1,715.83,nonwin4.png
4,2,12,1,1,712,nonwin3.png
4,2,13,2,1,812.23,nonwex2_10.png
4,2,14,1,1,624.52,nonwex2_2.png
4,2,15,1,1,804.74,nonwex2_12.png
4,2,16,1,1,768.98,nonwex2_3.png
4,2,17,2,1,741.21,nonwin2_9.png
4,2,18,2,1,769.41,nonwin9.png
4,2,19,2,1,853.66,nonwex5.png
4,2,20,1,1,657.9,nonwex12.png
4,2,21,2,1,702.13,nonwex10.png
4,2,22,2,1,706.35,nonwex1.png
4,2,23,2,1,806.57,nonwex9.png
4,2,24,2,1,938.82,nonwin5.png
4,3,1,2,1,1014.46,nonwin2_9.png
4,3,2,2,1,706.67,nonwin11.png
4,3,3,2,1,846.87,nonwin5.png
4,3,4,2,1,699.13,nonwin2_6.png
4,3,5,2,1,655.31,nonwin4.png
4,3,6,1,1,579.58,nonwin10.png
4,3,7,1,1,735.82,nonwex2_10.png
4,3,8,2,1,884.06,nonwex5.png
4,3,9,1,1,864.28,nonwex2_1.png
4,3,10,1,1,780.51,nonwex2_3.png
4,3,11,1,1,824.74,nonwex9.png
4,3,12,2,1,628.96,nonwex12.png
4,3,13,2,1,809.2,nonwex2_4.png
4,3,14,2,1,861.38,nonwex1.png
4,3,15,1,1,833.66,nonwin2_12.png
4,3,16,1,1,757.86,nonwin2_3.png
4,3,17,1,1,786.12,nonwin3.png
4,3,18,1,1,670.35,nonwex2_2.png
4,3,19,2,1,794.58,nonwex7.png
4,3,20,1,1,758.81,nonwin2_10.png
4,3,21,2,1,786.98,nonwex2_12.png
4,3,22,1,1,719.2,nonwin2_5.png
4,3,23,2,1,643.46,nonwin9.png
4,3,24,2,1,655.72,nonwex10.png
4,4,1,1,1,736.57,nonwex2_2.png
4,4,2,2,1,612.8,nonwin2_9.png
4,4,3,2,1,609.02,nonwex9.png
4,4,4,2,1,693.24,nonwin9.png
4,4,5,1,1,825.52,nonwex7.png
4,4,6,1,1,629.75,nonwin5.png
4,4,7,2,1,657.92,nonwex2_12.png
4,4,8,2,1,734.17,nonwin11.png
4,4,9,2,1,722.44,nonwex2_4.png
4,4,10,1,1,606.66,nonwin2_5.png
4,4,11,2,1,618.87,nonwin2_10.png
4,4,12,2,1,783.13,nonwex1.png
4,4,13,2,1,691.29,nonwex10.png
4,4,14,1,1,655.57,nonwex2_3.png
4,4,15,1,1,803.76,nonwex5.png
4,4,16,1,1,1103.93,nonwin3.png
4,4,17,1,1,636.2,nonwex12.png
4,4,18,2,1,688.51,nonwex2_1.png
4,4,19,1,1,684.67,nonwin2_12.png
4,4,20,1,1,624.95,nonwin10.png
4,4,21,2,1,629.14,nonwin2_6.png
4,4,22,1,1,745.37,nonwex2_10.png
4,4,23,2,1,581.63,nonwin2_3.png
4,4,24,2,1,593.87,nonwin4.png
4,5,1,2,1,911.65,nonwex7.png
4,5,2,2,1,547.92,nonwin11.png
4,5,3,2,1,584.09,nonwex10.png
4,5,4,2,1,636.33,nonwin2_3.png
4,5,5,2,1,624.61,nonwin9.png
4,5,6,1,1,836.8,nonwex2_2.png
4,5,7,2,1,625.07,nonwex2_12.png
4,5,8,2,1,741.26,nonwex2_1.png
4,5,9,1,1,481.53,nonwin10.png
4,5,10,1,1,549.76,nonwex2_3.png
4,5,11,1,1,657.98,nonwin2_5.png
4,5,12,1,1,678.18,nonwex2_10.png
4,5,13,1,1,794.44,nonwin5.png
4,5,14,2,1,542.68,nonwin4.png
4,5,15,2,1,538.88,nonwex9.png
4,5,16,2,1,583.08,nonwex5.png
4,5,17,2,1,706.66,nonwex1.png
4,5,18,1,1,734.93,nonwex12.png
4,5,19,1,1,763.12,nonwin2_12.png
4,5,20,2,1,703.4,nonwin2_6.png
4,5,21,2,1,619.59,nonwin2_9.png
4,5,22,2,1,623.81,nonwin3.png
4,5,23,2,1,660.07,nonwex2_4.png
4,5,24,2,1,688.3,nonwin2_10.png
4,6,1,1,1,931.2,nonwin10.png
4,6,2,2,1,535.46,nonwex2_12.png
4,6,3,1,1,595.69,nonwex5.png
4,6,4,1,1,879.9,nonwin2_5.png
4,6,5,1,1,564.12,nonwex2_3.png
4,6,6,2,1,600.35,nonwex10.png
4,6,7,1,1,900.61,nonwin5.png
4,6,8,2,1,520.8,nonwin3.png
4,6,9,2,1,541.09,nonwex9.png
4,6,10,2,1,497.27,nonwex2_4.png
4,6,11,2,1,541.49,nonwin2_6.png
4,6,12,2,1,545.73,nonwin2_10.png
4,6,13,1,1,878.01,nonwex2_10.png
4,6,14,1,1,626.22,nonwin2_12.png
4,6,15,2,1,598.47,nonwex1.png
4,6,16,2,1,706.66,nonwex2_1.png
4,6,17,2,1,558.93,nonwin2_9.png
4,6,18,2,1,563.17,nonwex7.png
4,6,19,2,1,575.38,nonwin2_3.png
4,6,20,2,1,659.62,nonwex2_2.png
4,6,21,1,1,639.82,nonwex12.png
4,6,22,2,1,636.07,nonwin9.png
4,6,23,2,1,712.31,nonwin4.png
4,6,24,2,1,660.49,nonwin11.png
4,7,1,2,1,721.91,nonwin2_6.png
4,7,2,1,1,670.15,nonwin2_12.png
4,7,3,2,1,626.34,nonwin2_10.png
4,7,4,2,1,534.57,nonwex1.png
4,7,5,2,1,522.78,nonwex5.png
4,7,6,2,1,479.07,nonwex7.png
4,7,7,2,1,531.28,nonwin9.png
4,7,8,2,1,567.51,nonwin2_9.png
4,7,9,2,1,563.72,nonwin4.png
4,7,10,1,1,639.9,nonwin10.png
4,7,11,1,1,620.17,nonwin3.png
4,7,12,1,1,528.43,nonwin5.png
4,7,13,1,1,556.62,nonwex2_2.png
4,7,14,2,1,632.88,nonwex2_4.png
4,7,15,2,1,733.12,nonwex2_1.png
4,7,16,2,1,521.37,nonwin2_3.png
4,7,17,2,1,533.55,nonwin11.png
4,7,18,1,1,617.83,nonwex2_10.png
4,7,19,1,1,702.06,nonwex2_3.png
4,7,20,2,1,538.25,nonwex10.png
4,7,21,1,1,590.51,nonwin2_5.png
4,7,22,1,1,746.74,nonwex12.png
4,7,23,2,1,846.89,nonwex2_12.png
4,7,24,2,1,699.18,nonwex9.png
4,8,1,2,1,627.62,nonwex2_4.png
4,8,2,1,1,575.82,nonwex2_3.png
4,8,3,2,1,516.09,nonwin9.png
4,8,4,2,1,480.34,nonwex9.png
4,8,5,2,1,452.52,nonwin4.png
4,8,6,2,1,520.8,nonwex5.png
4,8,7,2,1,501.03,nonwex2_12.png
4,8,8,2,1,521.21,nonwin2_6.png
4,8,9,2,1,493.49,nonwin11.png
4,8,10,1,1,521.71,nonwin2_5.png
4,8,11,1,1,581.95,nonwex10.png
4,8,12,1,1,570.14,nonwin10.png
4,8,13,1,1,550.37,nonwex12.png
4,8,14,2,1,658.63,nonwex2_1.png
4,8,15,1,1,878.83,nonwin5.png
4,8,16,1,1,651.07,nonwin2_12.png
4,8,17,2,1,655.31,nonwin3.png
4,8,18,2,1,771.49,nonwin2_10.png
4,8,19,2,1,487.76,nonwex1.png
4,8,20,2,1,507.99,nonwex7.png
4,8,21,2,1,760.24,nonwex2_2.png
4,8,22,1,1,572.42,nonwex2_10.png
4,8,23,2,1,600.63,nonwin2_9.png
4,8,24,2,1,660.93,nonwin2_3.png
5,1,1,0,0,0,nonwex2_7.png
5,1,2,1,1,732.32,nonwin12.png
5,1,3,1,1,704.49,nonwex2_6.png
5,1,4,1,1,1100.77,nonwex2.png
5,1,5,1,1,937,nonwin2_4.png
5,1,6,2,1,709.24,nonwin2_2.png
5,1,7,1,1,713.41,nonwex2_9.png
5,1,8,1,1,901.65,nonwex3.png
5,1,9,1,1,721.92,nonwin6.png
5,1,10,1,1,750.15,nonwex11.png
5,1,11,2,1,666.33,nonwin8.png
5,1,12,1,1,742.55,nonwex6.png
5,1,13,2,1,834.81,nonwin2_11.png
5,1,14,1,1,743.08,nonwex4.png
5,1,15,1,1,907.26,nonwin2_1.png
5,1,16,1,1,831.52,nonwin7.png
5,1,17,2,1,691.69,nonwex2_5.png
5,1,18,1,1,1007.95,nonwin1.png
5,1,19,1,1,756.18,nonwex2_8.png
5,1,20,2,1,784.4,nonwin2_8.png
5,1,21,2,1,932.68,nonwex8.png
5,1,22,1,1,904.91,nonwex2_11.png
5,1,23,1,1,741.14,nonwin2.png
5,1,24,0,0,0,nonwin2_7.png
5,2,1,1,1,884.28,nonwex2.png
5,2,2,1,1,784.5,nonwin6.png
5,2,3,2,1,996.69,nonwin1.png
5,2,4,2,1,553,nonwin2_1.png
5,2,5,1,1,645.22,nonwex11.png
5,2,6,1,1,937.46,nonwex2_8.png
5,2,7,1,1,837.67,nonwin7.png
5,2,8,1,1,657.91,nonwin2_8.png
5,2,9,0,0,0,nonwin12.png
5,2,10,1,1,946.34,nonwex6.png
5,2,11,2,1,750.58,nonwex2_7.png
5,2,12,1,1,802.84,nonwex2_11.png
5,2,13,0,0,0,nonwin2_4.png
5,2,14,1,1,915.28,nonwex2_9.png
5,2,15,2,1,815.53,nonwin2_7.png
5,2,16,2,1,1019.76,nonwex8.png
5,2,17,1,1,655.9,nonwin8.png
5,2,18,2,1,684.2,nonwin2.png
5,2,19,2,1,752.45,nonwex2_5.png
5,2,20,2,1,772.66,nonwin2_11.png
5,2,21,1,1,632.9,nonwex4.png
5,2,22,0,0,0,nonwin2_2.png
5,2,23,1,1,777.37,nonwex3.png
5,2,24,0,0,0,nonwex2_6.png
5,3,1,0,0,0,nonwex4.png
5,3,2,1,1,431.89,nonwin2_7.png
5,3,3,0,0,0,nonwin2_11.png
5,3,4,2,1,600.41,nonwin2_8.png
5,3,5,1,1,796.6,nonwin12.png
5,3,6,2,1,832.83,nonwin1.png
5,3,7,1,1,533.12,nonwex3.png
5,3,8,1,1,393.32,nonwex8.png
5,3,9,0,0,0,nonwex11.png
5,3,10,2,1,793.8,nonwex2.png
5,3,11,1,1,318.04,nonwin2_1.png
5,3,12,1,1,378.07,nonwex2_6.png
5,3,13,1,1,326.48,nonwex6.png
5,3,14,1,1,826.72,nonwex2_8.png
5,3,15,1,1,798.92,nonwin6.png
5,3,16,1,1,651.11,nonwin2_2.png
5,3,17,1,1,727.4,nonwex2_9.png
5,3,18,1,1,819.58,nonwin8.png
5,3,19,2,1,647.83,nonwin2.png
5,3,20,2,1,716.1,nonwin2_4.png
5,3,21,2,1,728.3,nonwex2_11.png
5,3,22,2,1,644.5,nonwex2_5.png
5,3,23,1,1,840.79,nonwex2_7.png
5,3,24,2,1,845.02,nonwin7.png
5,4,1,2,1,787.02,nonwex2_5.png
5,4,2,1,1,551.25,nonwin7.png
5,4,3,1,1,603.48,nonwin8.png
5,4,4,1,1,783.75,nonwex2.png
5,4,5,2,1,803.96,nonwin2_8.png
5,4,6,0,0,0,nonwex2_9.png
5,4,7,2,1,676.43,nonwin2_4.png
5,4,8,1,1,736.65,nonwex2_11.png
5,4,9,2,1,620.83,nonwin2_7.png
5,4,10,2,1,769.07,nonwin2_11.png
5,4,11,1,1,541.35,nonwin2_2.png
5,4,12,1,1,337.57,nonwex2_7.png
5,4,13,1,1,805.78,nonwex6.png
5,4,14,2,1,834.04,nonwex2_6.png
5,4,15,1,1,622.28,nonwin2_1.png
5,4,16,1,1,610.5,nonwex2_8.png
5,4,17,1,1,710.73,nonwex11.png
5,4,18,1,1,882.96,nonwex4.png
5,4,19,0,0,0,nonwin2.png
5,4,20,0,0,0,nonwex3.png
5,4,21,2,1,791.61,nonwex8.png
5,4,22,1,1,979.88,nonwin1.png
5,4,23,2,1,944.05,nonwin12.png
5,4,24,1,1,876.34,nonwin6.png
5,5,1,1,1,659.68,nonwin2_2.png
5,5,2,0,0,0,nonwex4.png
5,5,3,1,1,580.1,nonwin2_4.png
5,5,4,0,0,0,nonwex2.png
5,5,5,1,1,588.61,nonwin1.png
5,5,6,1,1,592.84,nonwex3.png
5,5,7,0,0,0,nonwin2_7.png
5,5,8,2,1,537.3,nonwex2_6.png
5,5,9,1,1,461.52,nonwex2_8.png
5,5,10,1,1,361.73,nonwin12.png
5,5,11,1,1,541.99,nonwin2.png
5,5,12,0,0,0,nonwex11.png
5,5,13,1,1,670.45,nonwex2_11.png
5,5,14,1,1,682.66,nonwex2_7.png
5,5,15,0,0,0,nonwex6.png
5,5,16,1,1,851.06,nonwex2_9.png
5,5,17,1,1,1063.37,nonwin2_1.png
5,5,18,0,0,0,nonwin2_11.png
5,5,19,1,1,599.83,nonwin6.png
5,5,20,0,0,0,nonwin8.png
5,5,21,1,1,632.26,nonwin2_8.png
5,5,22,2,1,636.51,nonwin7.png
5,5,23,1,1,712.75,nonwex2_5.png
5,5,24,2,1,644.97,nonwex8.png
5,6,1,1,1,850.38,nonwex2.png
5,6,2,1,1,622.58,nonwex3.png
5,6,3,0,0,0,nonwex11.png
5,6,4,1,1,543.08,nonwin2_7.png
5,6,5,1,1,651.33,nonwex6.png
5,6,6,1,1,519.51,nonwin12.png
5,6,7,1,1,659.76,nonwex2_7.png
5,6,8,1,1,719.92,nonwin8.png
5,6,9,0,0,0,nonwin2_8.png
5,6,10,1,1,912.47,nonwin2_11.png
5,6,11,1,1,660.71,nonwex8.png
5,6,12,2,1,680.93,nonwin2_2.png
5,6,13,2,1,765.15,nonwin2.png
5,6,14,1,1,657.39,nonwex2_9.png
5,6,15,1,1,525.62,nonwin2_1.png
5,6,16,1,1,537.82,nonwin7.png
5,6,17,1,1,886.07,nonwex2_11.png
5,6,18,1,1,634.31,nonwex2_5.png
5,6,19,1,1,614.51,nonwin2_4.png
5,6,20,1,1,522.73,nonwex2_6.png
5,6,21,1,1,382.95,nonwin6.png
5,6,22,1,1,347.19,nonwin1.png
5,6,23,1,1,295.42,nonwex4.png
5,6,24,1,1,331.63,nonwex2_8.png
5,7,1,1,1,901,nonwin1.png
5,7,2,1,1,609.22,nonwin2_4.png
5,7,3,1,1,741.44,nonwex2.png
5,7,4,1,1,481.66,nonwin2_8.png
5,7,5,1,1,453.94,nonwin7.png
5,7,6,1,1,330.11,nonwin2_11.png
5,7,7,1,1,238.36,nonwex11.png
5,7,8,1,1,282.63,nonwex2_6.png
5,7,9,1,1,278.79,nonwex2_8.png
5,7,10,1,1,291.08,nonwin6.png
5,7,11,0,0,0,nonwex6.png
5,7,12,1,1,459.54,nonwex2_9.png
5,7,13,1,1,471.74,nonwin12.png
5,7,14,1,1,708,nonwin2_1.png
5,7,15,2,1,672.23,nonwex8.png
5,7,16,1,1,500.41,nonwin8.png
5,7,17,1,1,840.67,nonwex4.png
5,7,18,2,1,652.92,nonwex2_5.png
5,7,19,2,1,681.15,nonwin2_2.png
5,7,20,2,1,733.34,nonwin2.png
5,7,21,0,0,0,nonwin2_7.png
5,7,22,1,1,501.84,nonwex2_11.png
5,7,23,1,1,738.03,nonwex2_7.png
5,7,24,1,1,646.29,nonwex3.png
5,8,1,0,0,0,nonwex2_8.png
5,8,2,1,1,503.33,nonwex2_11.png
5,8,3,1,1,707.58,nonwin1.png
5,8,4,2,1,647.82,nonwin12.png
5,8,5,2,1,692,nonwin2_4.png
5,8,6,1,1,496.28,nonwex4.png
5,8,7,1,1,916.5,nonwin6.png
5,8,8,1,1,928.66,nonwex6.png
5,8,9,2,1,652.95,nonwin2_2.png
5,8,10,1,1,641.19,nonwex2.png
5,8,11,1,1,525.38,nonwin2.png
5,8,12,1,1,369.65,nonwin2_1.png
5,8,13,1,1,437.74,nonwex3.png
5,8,14,1,1,386.07,nonwin2_8.png
5,8,15,1,1,790.34,nonwex2_7.png
5,8,16,1,1,874.55,nonwin2_7.png
5,8,17,1,1,638.76,nonwin8.png
5,8,18,1,1,707.03,nonwex2_5.png
5,8,19,1,1,471.24,nonwin2_11.png
5,8,20,0,0,0,nonwex2_9.png
5,8,21,1,1,663.72,nonwex11.png
5,8,22,2,1,619.9,nonwex8.png
5,8,23,1,1,544.17,nonwin7.png
5,8,24,0,0,0,nonwex2_6.png
6,1,1,2,1,882.72,nonwin11.png
6,1,2,2,1,774.26,nonwin2.png
6,1,3,2,1,650.48,nonwex7.png
6,1,4,1,1,758.75,nonwex2_9.png
6,1,5,2,1,722.95,nonwex5.png
6,1,6,1,1,751.2,nonwin1.png
6,1,7,1,1,771.39,nonwex2_5.png
6,1,8,1,1,783.61,nonwin2_12.png
6,1,9,1,1,755.9,nonwex10.png
6,1,10,2,1,784.04,nonwin2_7.png
6,1,11,2,1,804.32,nonwin9.png
6,1,12,1,1,648.58,nonwin4.png
6,1,13,1,1,852.76,nonwex8.png
6,1,14,1,1,672.98,nonwex2_3.png
6,1,15,1,1,885.25,nonwex2_11.png
6,1,16,2,1,777.43,nonwex2_12.png
6,1,17,1,1,917.72,nonwex2_1.png
6,1,18,1,1,721.95,nonwin6.png
6,1,19,2,1,742.14,nonwin2_11.png
6,1,20,1,1,714.42,nonwin2_6.png
6,1,21,2,1,854.65,nonwex9.png
6,1,22,2,1,626.88,nonwex2_8.png
6,1,23,1,1,831.11,nonwex3.png
6,1,24,1,1,803.34,nonwex2.png
6,2,1,1,1,630.26,nonwin11.png
6,2,2,2,1,690.51,nonwin2_7.png
6,2,3,2,1,622.71,nonwex2_11.png
6,2,4,1,1,842.97,nonwin6.png
6,2,5,2,1,735.14,nonwex2_12.png
6,2,6,1,1,755.38,nonwex2.png
6,2,7,2,1,735.62,nonwin9.png
6,2,8,2,1,667.85,nonwin2_11.png
6,2,9,1,1,784.07,nonwex8.png
6,2,10,1,1,868.33,nonwex2_3.png
6,2,11,2,1,792.58,nonwex9.png
6,2,12,1,1,852.79,nonwex10.png
6,2,13,1,1,824.99,nonwex2_9.png
6,2,14,2,1,805.25,nonwex7.png
6,2,15,1,1,985.46,nonwin2_6.png
6,2,16,1,1,829.72,nonwex2_5.png
6,2,17,2,1,729.95,nonwex5.png
6,2,18,1,1,798.18,nonwex2_1.png
6,2,19,1,1,850.41,nonwin2_12.png
6,2,20,2,1,694.65,nonwin1.png
6,2,21,1,1,698.87,nonwin4.png
6,2,22,1,1,663.04,nonwex2_8.png
6,2,23,1,1,715.33,nonwin2.png
6,2,24,1,1,671.52,nonwex3.png
6,3,1,1,1,650.94,nonwex2_11.png
6,3,2,1,1,743.2,nonwex7.png
6,3,3,2,1,555.38,nonwin2_11.png
6,3,4,2,1,719.63,nonwin11.png
6,3,5,1,1,611.85,nonwex2_8.png
6,3,6,1,1,712.1,nonwin9.png
6,3,7,1,1,708.31,nonwex10.png
6,3,8,2,1,672.5,nonwex5.png
6,3,9,2,1,812.8,nonwin1.png
6,3,10,1,1,753.03,nonwex8.png
6,3,11,2,1,741.24,nonwex2.png
6,3,12,1,1,761.49,nonwex2_3.png
6,3,13,2,1,725.72,nonwex2_12.png
6,3,14,1,1,673.95,nonwex2_5.png
6,3,15,2,1,758.15,nonwin6.png
6,3,16,1,1,602.4,nonwin4.png
6,3,17,1,1,694.64,nonwex9.png
6,3,18,2,1,706.87,nonwex2_1.png
6,3,19,1,1,679.09,nonwex2_9.png
6,3,20,1,1,1027.27,nonwin2_12.png
6,3,21,2,1,831.52,nonwin2_7.png
6,3,22,1,1,787.79,nonwex3.png
6,3,23,1,1,751.98,nonwin2_6.png
6,3,24,2,1,852.24,nonwin2.png
6,4,1,2,1,733.5,nonwin2_7.png
6,4,2,1,1,665.77,nonwin2_12.png
6,4,3,1,1,702.01,nonwex2_3.png
6,4,4,2,1,762.26,nonwin11.png
6,4,5,2,1,694.49,nonwin4.png
6,4,6,2,1,682.66,nonwin9.png
6,4,7,1,1,686.93,nonwex7.png
6,4,8,2,1,859.17,nonwin1.png
6,4,9,2,1,951.41,nonwex2.png
6,4,10,2,1,867.58,nonwex2_12.png
6,4,11,1,1,695.82,nonwex5.png
6,4,12,1,1,716.1,nonwex2_5.png
6,4,13,1,1,672.29,nonwin2_6.png
6,4,14,1,1,548.55,nonwin6.png
6,4,15,1,1,736.78,nonwex9.png
6,4,16,1,1,757.01,nonwex3.png
6,4,17,1,1,681.18,nonwin2_11.png
6,4,18,1,1,677.45,nonwex2_1.png
6,4,19,1,1,1001.64,nonwex10.png
6,4,20,1,1,789.92,nonwex2_9.png
6,4,21,1,1,914.15,nonwex2_8.png
6,4,22,1,1,710.39,nonwex2_11.png
6,4,23,2,1,722.56,nonwex8.png
6,4,24,1,1,742.79,nonwin2.png
6,5,1,2,1,684.86,nonwin2_6.png
6,5,2,2,1,657.11,nonwin2_7.png
6,5,3,1,1,741.35,nonwex2_9.png
6,5,4,1,1,905.53,nonwex2_12.png
6,5,5,1,1,741.76,nonwex9.png
6,5,6,2,1,657.98,nonwin9.png
6,5,7,1,1,774.24,nonwin2_12.png
6,5,8,1,1,562.49,nonwin6.png
6,5,9,1,1,606.65,nonwin2.png
6,5,10,1,1,594.95,nonwex5.png
6,5,11,1,1,495.18,nonwin4.png
6,5,12,1,1,587.4,nonwex2_1.png
6,5,13,1,1,567.64,nonwex2_5.png
6,5,14,1,1,547.79,nonwex10.png
6,5,15,1,1,624.06,nonwex2_3.png
6,5,16,1,1,588.33,nonwex8.png
6,5,17,1,1,624.5,nonwex2.png
6,5,18,1,1,612.74,nonwex3.png
6,5,19,1,1,736.96,nonwex2_11.png
6,5,20,1,1,717.24,nonwex2_8.png
6,5,21,1,1,641.42,nonwin11.png
6,5,22,1,1,485.66,nonwex7.png
6,5,23,1,1,761.94,nonwin1.png
6,5,24,1,1,766.17,nonwin2_11.png
6,6,1,1,1,755.52,nonwex2_11.png
6,6,2,1,1,679.71,nonwex2_8.png
6,6,3,2,1,612,nonwin2_7.png
6,6,4,1,1,648.24,nonwin1.png
6,6,5,2,1,660.42,nonwin9.png
6,6,6,2,1,640.67,nonwin2_11.png
6,6,7,1,1,700.9,nonwin6.png
6,6,8,1,1,729.15,nonwex2_9.png
6,6,9,1,1,541.35,nonwex3.png
6,6,10,1,1,777.57,nonwex2_12.png
6,6,11,1,1,701.82,nonwex2_1.png
6,6,12,1,1,521.42,nonwex8.png
6,6,13,1,1,637.64,nonwin2_12.png
6,6,14,1,1,745.84,nonwex2_3.png
6,6,15,1,1,646.05,nonwin2_6.png
6,6,16,1,1,602.3,nonwex5.png
6,6,17,1,1,606.57,nonwex9.png
6,6,18,1,1,554.76,nonwex10.png
6,6,19,1,1,551.01,nonwex2.png
6,6,20,1,1,411.21,nonwex2_5.png
6,6,21,1,1,255.42,nonwin11.png
6,6,22,1,1,291.7,nonwin4.png
6,6,23,1,1,463.94,nonwin2.png
6,6,24,1,1,364.11,nonwex7.png
6,7,1,1,1,566.23,nonwex5.png
6,7,2,1,1,506.49,nonwex2.png
6,7,3,2,1,510.68,nonwin2_7.png
6,7,4,1,1,634.92,nonwin6.png
6,7,5,2,1,575.16,nonwin2_11.png
6,7,6,1,1,635.39,nonwin2_12.png
6,7,7,1,1,615.62,nonwex3.png
6,7,8,1,1,683.8,nonwex2_11.png
6,7,9,1,1,552.03,nonwex2_12.png
6,7,10,1,1,540.31,nonwex10.png
6,7,11,2,1,832.56,nonwin9.png
6,7,12,1,1,588.77,nonwex9.png
6,7,13,1,1,417.01,nonwex2_5.png
6,7,14,1,1,229.25,nonwex2_3.png
6,7,15,1,1,249.43,nonwin1.png
6,7,16,1,1,365.66,nonwin11.png
6,7,17,1,1,313.9,nonwex2_8.png
6,7,18,1,1,246.17,nonwin2_6.png
6,7,19,1,1,242.36,nonwin2.png
6,7,20,1,1,286.57,nonwex2_1.png
6,7,21,1,1,234.8,nonwex7.png
6,7,22,1,1,279.02,nonwin4.png
6,7,23,1,1,283.29,nonwex8.png
6,7,24,1,1,271.49,nonwex2_9.png
6,8,1,2,1,859.25,nonwin1.png
6,8,2,1,1,551.49,nonwex10.png
6,8,3,2,1,731.7,nonwin2_11.png
6,8,4,1,1,551.9,nonwin11.png
6,8,5,1,1,620.14,nonwex2_3.png
6,8,6,1,1,752.41,nonwex2_1.png
6,8,7,1,1,572.64,nonwex9.png
6,8,8,2,1,616.87,nonwin9.png
6,8,9,1,1,885.03,nonwex2_9.png
6,8,10,1,1,537.27,nonwex8.png
6,8,11,1,1,589.56,nonwex2.png
6,8,12,2,1,713.79,nonwin2_7.png
6,8,13,1,1,565.98,nonwex2_8.png
6,8,14,1,1,626.25,nonwex2_5.png
6,8,15,1,1,430.46,nonwex3.png
6,8,16,1,1,314.69,nonwex5.png
6,8,17,1,1,150.9,nonwex2_12.png
6,8,18,1,1,187.17,nonwex2_11.png
6,8,19,0,0,0,nonwin2_6.png
6,8,20,1,1,179.63,nonwin4.png
6,8,21,1,1,183.85,nonwin2_12.png
6,8,22,1,1,244.03,nonwin2.png
6,8,23,1,1,248.29,nonwex7.png
6,8,24,1,1,220.55,nonwin6.png
7,1,1,2,1,745.97,nonwex2_6.png
7,1,2,1,1,789.37,nonwex1.png
7,1,3,1,1,798.12,nonwin2_1.png
7,1,4,1,1,734.89,nonwin8.png
7,1,5,2,1,607.61,nonwin2_8.png
7,1,6,2,1,656.33,nonwin2_4.png
7,1,7,2,1,641.03,nonwex6.png
7,1,8,1,1,681.8,nonwin2_3.png
7,1,9,1,1,770.49,nonwin2_2.png
7,1,10,2,1,755.24,nonwex11.png
7,1,11,1,1,662.65,nonwin3.png
7,1,12,2,1,714.08,nonwin5.png
7,1,13,1,1,869.46,nonwex2_4.png
7,1,14,1,1,824.81,nonwex12.png
7,1,15,2,1,732.23,nonwin2_10.png
7,1,16,2,1,647.67,nonwin2_9.png
7,1,17,2,1,603.01,nonwin7.png
7,1,18,1,1,686.47,nonwex2_2.png
7,1,19,1,1,569.77,nonwin12.png
7,1,20,1,1,741.2,nonwex4.png
7,1,21,1,1,664.61,nonwin2_5.png
7,1,22,2,1,721.13,nonwin10.png
7,1,23,2,1,692.74,nonwex2_7.png
7,1,24,1,1,848.16,nonwex2_10.png
7,2,1,1,1,597.32,nonwin2_3.png
7,2,2,1,1,950.11,nonwex12.png
7,2,3,1,1,742.8,nonwin2_2.png
7,2,4,2,1,695.55,nonwin7.png
7,2,5,2,1,656.26,nonwin2_8.png
7,2,6,2,1,633.01,nonwex6.png
7,2,7,1,1,649.72,nonwin2_1.png
7,2,8,2,1,626.45,nonwex2_7.png
7,2,9,1,1,563.18,nonwex2_2.png
7,2,10,2,1,659.89,nonwin2_4.png
7,2,11,1,1,732.64,nonwin10.png
7,2,12,1,1,813.38,nonwin2_5.png
7,2,13,1,1,638.1,nonwex2_4.png
7,2,14,1,1,662.79,nonwex4.png
7,2,15,2,1,583.51,nonwex2_6.png
7,2,16,1,1,632.29,nonwex2_10.png
7,2,17,1,1,681.02,nonwex1.png
7,2,18,1,1,697.71,nonwin12.png
7,2,19,1,1,714.42,nonwin3.png
7,2,20,2,1,675.17,nonwin2_9.png
7,2,21,1,1,787.93,nonwin5.png
7,2,22,1,1,652.66,nonwin8.png
7,2,23,2,1,669.34,nonwex11.png
7,2,24,2,1,664.8,nonwin2_10.png
7,3,1,1,1,536.73,nonwex4.png
7,3,2,1,1,673.52,nonwin3.png
7,3,3,2,1,834.28,nonwin2_10.png
7,3,4,1,1,634.97,nonwin2_1.png
7,3,5,2,1,675.73,nonwin2_8.png
7,3,6,1,1,620.4,nonwin8.png
7,3,7,1,1,605.13,nonwin2_3.png
7,3,8,1,1,629.92,nonwex12.png
7,3,9,2,1,766.59,nonwex2_2.png
7,3,10,2,1,695.37,nonwin10.png
7,3,11,2,1,728.1,nonwex11.png
7,3,12,2,1,696.81,nonwex6.png
7,3,13,2,1,713.55,nonwin7.png
7,3,14,1,1,554.23,nonwex2_4.png
7,3,15,1,1,603.01,nonwin2_2.png
7,3,16,1,1,635.71,nonwin12.png
7,3,17,1,1,580.42,nonwin2_5.png
7,3,18,1,1,613.2,nonwex1.png
7,3,19,2,1,557.91,nonwex2_7.png
7,3,20,2,1,750.64,nonwin2_4.png
7,3,21,2,1,695.35,nonwex2_6.png
7,3,22,1,1,616.11,nonwex2_10.png
7,3,23,2,1,728.8,nonwin2_9.png
7,3,24,1,1,769.53,nonwin5.png
7,4,1,1,1,600.47,nonwin2_3.png
7,4,2,1,1,825.2,nonwin2_10.png
7,4,3,1,1,545.87,nonwin2_1.png
7,4,4,2,1,538.63,nonwin2_4.png
7,4,5,1,1,523.38,nonwin2_2.png
7,4,6,1,1,612.06,nonwex2_4.png
7,4,7,2,1,772.84,nonwin10.png
7,4,8,1,1,541.54,nonwin8.png
7,4,9,2,1,846.27,nonwin2_9.png
7,4,10,2,1,615.02,nonwex11.png
7,4,11,1,1,559.75,nonwex1.png
7,4,12,2,1,440.43,nonwex6.png
7,4,13,1,1,513.21,nonwex2_2.png
7,4,14,2,1,609.89,nonwex2_6.png
7,4,15,1,1,634.64,nonwex4.png
7,4,16,2,1,563.39,nonwex2_7.png
7,4,17,1,1,556.12,nonwex2_10.png
7,4,18,1,1,604.85,nonwin12.png
7,4,19,2,1,597.58,nonwin2_8.png
7,4,20,1,1,638.31,nonwin5.png
7,4,21,1,1,582.98,nonwex12.png
7,4,22,1,1,695.72,nonwin3.png
7,4,23,2,1,760.49,nonwin7.png
7,4,24,1,1,553.21,nonwin2_5.png
7,5,1,1,1,666.74,nonwex2_2.png
7,5,2,1,1,547.49,nonwex2_4.png
7,5,3,2,1,548.19,nonwex2_6.png
7,5,4,2,1,540.94,nonwex6.png
7,5,5,1,1,525.69,nonwex4.png
7,5,6,2,1,542.39,nonwin2_8.png
7,5,7,0,0,0,nonwin2_1.png
7,5,8,2,1,575.83,nonwex2_7.png
7,5,9,1,1,640.6,nonwin5.png
7,5,10,1,1,681.3,nonwex12.png
7,5,11,2,1,610.02,nonwin10.png
7,5,12,1,1,586.75,nonwin2_2.png
7,5,13,2,1,723.52,nonwin7.png
7,5,14,2,1,516.18,nonwex11.png
7,5,15,1,1,780.95,nonwin3.png
7,5,16,1,1,861.69,nonwin2_10.png
7,5,17,1,1,558.4,nonwex2_10.png
7,5,18,1,1,623.1,nonwin12.png
7,5,19,2,1,639.81,nonwin2_4.png
7,5,20,2,1,760.62,nonwin2_9.png
7,5,21,1,1,601.33,nonwin2_5.png
7,5,22,1,1,729.39,nonwin2_3.png
7,5,23,1,1,706.75,nonwex1.png
7,5,24,1,1,627.53,nonwin8.png
7,6,1,1,1,401.75,nonwin2_5.png
7,6,2,1,1,554.41,nonwin8.png
7,6,3,2,1,611.19,nonwin2_4.png
7,6,4,2,1,683.92,nonwin7.png
7,6,5,1,1,740.6,nonwin5.png
7,6,6,1,1,573.32,nonwex2_2.png
7,6,7,2,1,550.06,nonwin2_9.png
7,6,8,1,1,582.78,nonwin2_2.png
7,6,9,1,1,615.52,nonwex1.png
7,6,10,2,1,576.29,nonwex11.png
7,6,11,1,1,601.02,nonwin12.png
7,6,12,1,1,553.75,nonwin2_3.png
7,6,13,1,1,554.44,nonwin2_1.png
7,6,14,1,1,587.2,nonwex4.png
7,6,15,1,1,659.89,nonwex12.png
7,6,16,1,1,692.6,nonwin10.png
7,6,17,1,1,581.38,nonwex2_4.png
7,6,18,1,1,726.07,nonwin3.png
7,6,19,1,1,574.79,nonwex2_10.png
7,6,20,2,1,479.57,nonwex2_7.png
7,6,21,2,1,560.24,nonwex6.png
7,6,22,2,1,649.03,nonwin2_8.png
7,6,23,2,1,729.73,nonwin2_10.png
7,6,24,2,1,642.48,nonwex2_6.png
7,7,1,1,1,652.79,nonwin2_2.png
7,7,2,1,1,517.5,nonwex2_10.png
7,7,3,1,1,662.23,nonwin12.png
7,7,4,1,1,670.9,nonwin5.png
7,7,5,2,1,855.65,nonwex2_7.png
7,7,6,2,1,648.38,nonwin2_10.png
7,7,7,1,1,617.14,nonwex12.png
7,7,8,1,1,593.83,nonwex1.png
7,7,9,2,1,714.57,nonwin7.png
7,7,10,1,1,659.26,nonwin2_5.png
7,7,11,2,1,604.01,nonwin2_8.png
7,7,12,2,1,556.72,nonwex11.png
7,7,13,2,1,573.51,nonwex6.png
7,7,14,1,1,718.2,nonwex2_2.png
7,7,15,1,1,614.97,nonwin2_1.png
7,7,16,2,1,695.7,nonwin10.png
7,7,17,1,1,792.42,nonwex2_4.png
7,7,18,1,1,721.14,nonwin3.png
7,7,19,1,1,609.87,nonwin2_3.png
7,7,20,1,1,530.6,nonwin8.png
7,7,21,2,1,579.33,nonwex2_6.png
7,7,22,2,1,699.99,nonwin2_9.png
7,7,23,2,1,620.79,nonwin2_4.png
7,7,24,1,1,733.47,nonwex4.png
7,8,1,1,1,590.77,nonwin3.png
7,8,2,1,1,567.39,nonwin12.png
7,8,3,1,1,552.2,nonwin2_2.png
7,8,4,2,1,600.88,nonwex2_6.png
7,8,5,1,1,665.66,nonwex2_2.png
7,8,6,1,1,730.38,nonwin2_3.png
7,8,7,2,1,795.08,nonwin7.png
7,8,8,2,1,659.84,nonwin2_4.png
7,8,9,1,1,660.57,nonwex2_10.png
7,8,10,1,1,653.26,nonwex2_4.png
7,8,11,2,1,694.03,nonwex11.png
7,8,12,1,1,622.69,nonwex1.png
7,8,13,1,1,639.42,nonwin5.png
7,8,14,1,1,808.21,nonwin2_1.png
7,8,15,1,1,656.94,nonwin8.png
7,8,16,2,1,601.64,nonwin10.png
7,8,17,1,1,882.37,nonwex4.png
7,8,18,1,1,651.12,nonwin2_5.png
7,8,19,2,1,571.84,nonwin2_10.png
7,8,20,1,1,636.58,nonwex12.png
7,8,21,2,1,501.25,nonwex2_7.png
7,8,22,2,1,590.03,nonwin2_8.png
7,8,23,2,1,614.73,nonwin2_9.png
7,8,24,2,1,511.44,nonwex6.png
8,1,1,1,1,947.65,nonwin3.png
8,1,2,1,1,695.09,nonwin2_3.png
8,1,3,1,1,703.81,nonwin10.png
8,1,4,1,1,968.48,nonwex2_12.png
8,1,5,1,1,969.27,nonwin2_10.png
8,1,6,1,1,657.99,nonwin9.png
8,1,7,1,1,802.68,nonwin2_5.png
8,1,8,1,1,731.46,nonwex1.png
8,1,9,2,1,916.19,nonwex5.png
8,1,10,1,1,796.92,nonwex2_2.png
8,1,11,2,1,880.27,nonwin4.png
8,1,12,1,1,899.72,nonwex12.png
8,1,13,1,1,815.1,nonwin11.png
8,1,14,2,1,746.46,nonwex2_1.png
8,1,15,2,1,845.9,nonwin2_6.png
8,1,16,2,1,745.26,nonwex7.png
8,1,17,1,1,708.73,nonwex10.png
8,1,18,2,1,808.12,nonwex9.png
8,1,19,2,1,859.3,nonwin2_9.png
8,1,20,2,1,782.9,nonwin2_12.png
8,1,21,2,1,714.3,nonwex2_3.png
8,1,22,2,1,813.73,nonwex2_10.png
8,1,23,1,1,705.15,nonwex2_4.png
8,1,24,2,1,772.49,nonwin5.png
8,2,1,1,1,833.06,nonwex2_2.png
8,2,2,1,1,804.06,nonwin2_3.png
8,2,3,2,1,845.19,nonwex2_12.png
8,2,4,1,1,869.98,nonwex9.png
8,2,5,2,1,750.7,nonwex7.png
8,2,6,2,1,711.42,nonwin2_6.png
8,2,7,1,1,776.09,nonwin9.png
8,2,8,2,1,752.86,nonwex5.png
8,2,9,1,1,809.57,nonwin2_5.png
8,2,10,1,1,722.34,nonwex10.png
8,2,11,2,1,891.05,nonwin2_10.png
8,2,12,1,1,811.79,nonwex12.png
8,2,13,2,1,756.52,nonwin2_12.png
8,2,14,2,1,821.26,nonwin3.png
8,2,15,1,1,933.95,nonwin5.png
8,2,16,1,1,910.69,nonwin2_9.png
8,2,17,1,1,799.38,nonwin11.png
8,2,18,1,1,792.19,nonwin4.png
8,2,19,2,1,712.89,nonwin10.png
8,2,20,1,1,1041.64,nonwex1.png
8,2,21,1,1,802.37,nonwex2_3.png
8,2,22,1,1,763.08,nonwex2_4.png
8,2,23,1,1,707.83,nonwex2_10.png
8,2,24,1,1,852.56,nonwex2_1.png
8,3,1,1,1,858.35,nonwin4.png
8,3,2,1,1,555.12,nonwex2_4.png
8,3,3,1,1,715.79,nonwex9.png
8,3,4,1,1,700.57,nonwex2_3.png
8,3,5,1,1,677.26,nonwin2_3.png
8,3,6,2,1,742.04,nonwin10.png
8,3,7,1,1,838.75,nonwin3.png
8,3,8,2,1,695.44,nonwin2_9.png
8,3,9,1,1,712.23,nonwin2_5.png
8,3,10,2,1,696.94,nonwin2_12.png
8,3,11,2,1,745.68,nonwin5.png
8,3,12,1,1,714.39,nonwex12.png
8,3,13,1,1,539.13,nonwex2_2.png
8,3,14,1,1,747.78,nonwex10.png
8,3,15,2,1,628.59,nonwex5.png
8,3,16,2,1,701.33,nonwex1.png
8,3,17,2,1,638.03,nonwex2_10.png
8,3,18,2,1,630.79,nonwex2_12.png
8,3,19,2,1,831.47,nonwin2_10.png
8,3,20,1,1,768.25,nonwin11.png
8,3,21,1,1,808.96,nonwin9.png
8,3,22,1,1,937.68,nonwin2_6.png
8,3,23,2,1,706.38,nonwex2_1.png
8,3,24,2,1,611.15,nonwex7.png
8,4,1,2,1,615.4,nonwex7.png
8,4,2,2,1,672.17,nonwin5.png
8,4,3,1,1,832.91,nonwin11.png
8,4,4,1,1,673.63,nonwin2_5.png
8,4,5,2,1,778.33,nonwin2_9.png
8,4,6,2,1,651.05,nonwex5.png
8,4,7,1,1,619.79,nonwex10.png
8,4,8,1,1,708.55,nonwin10.png
8,4,9,1,1,701.28,nonwex9.png
8,4,10,1,1,694.01,nonwin2_6.png
8,4,11,1,1,678.66,nonwex2_4.png
8,4,12,1,1,591.43,nonwin9.png
8,4,13,2,1,736.15,nonwex2_12.png
8,4,14,1,1,760.88,nonwex12.png
8,4,15,2,1,721.65,nonwin2_12.png
8,4,16,1,1,890.39,nonwin3.png
8,4,17,2,1,667.09,nonwex2_10.png
8,4,18,2,1,707.81,nonwin2_10.png
8,4,19,1,1,772.57,nonwex2_3.png
8,4,20,2,1,685.26,nonwex2_1.png
8,4,21,1,1,606.01,nonwex2_2.png
8,4,22,1,1,598.73,nonwin2_3.png
8,4,23,1,1,647.49,nonwin4.png
8,4,24,1,1,656.15,nonwex1.png
8,5,1,1,1,628.5,nonwin2_6.png
8,5,2,1,1,687.86,nonwin3.png
8,5,3,2,1,704.61,nonwin4.png
8,5,4,1,1,732.07,nonwin10.png
8,5,5,1,1,676.79,nonwin9.png
8,5,6,2,1,613.52,nonwin5.png
8,5,7,2,1,630.24,nonwin2_10.png
8,5,8,1,1,590.94,nonwin2_5.png
8,5,9,1,1,671.72,nonwin11.png
8,5,10,2,1,584.4,nonwin2_12.png
8,5,11,1,1,705.16,nonwin2_3.png
8,5,12,2,1,665.84,nonwex1.png
8,5,13,2,1,594.63,nonwex5.png
8,5,14,2,1,739.36,nonwex2_1.png
8,5,15,1,1,508.07,nonwex2_4.png
8,5,16,1,1,668.79,nonwex12.png
8,5,17,2,1,605.49,nonwex2_10.png
8,5,18,1,1,534.23,nonwex2_3.png
8,5,19,2,1,623,nonwex2_12.png
8,5,20,2,1,655.74,nonwin2_9.png
8,5,21,1,1,560.45,nonwex2_2.png
8,5,22,1,1,521.17,nonwex10.png
8,5,23,2,1,561.88,nonwex7.png
8,5,24,1,1,826.63,nonwex9.png
8,6,1,1,1,548.32,nonwex10.png
8,6,2,2,1,557.08,nonwex2_12.png
8,6,3,2,1,525.79,nonwex1.png
8,6,4,2,1,718.54,nonwex2_1.png
8,6,5,2,1,623.27,nonwin2_10.png
8,6,6,1,1,679.98,nonwin3.png
8,6,7,1,1,768.74,nonwex12.png
8,6,8,1,1,633.46,nonwin2_5.png
8,6,9,1,1,626.17,nonwin4.png
8,6,10,1,1,650.87,nonwin2_6.png
8,6,11,2,1,659.62,nonwex2_10.png
8,6,12,2,1,580.37,nonwex5.png
8,6,13,1,1,581.06,nonwex2_4.png
8,6,14,2,1,749.85,nonwin2_12.png
8,6,15,1,1,750.54,nonwin9.png
8,6,16,2,1,679.26,nonwin2_9.png
8,6,17,1,1,751.97,nonwin10.png
8,6,18,1,1,840.77,nonwin11.png
8,6,19,2,1,665.47,nonwex7.png
8,6,20,1,1,594.22,nonwex2_2.png
8,6,21,1,1,522.89,nonwin2_3.png
8,6,22,1,1,811.65,nonwex9.png
8,6,23,2,1,644.42,nonwin5.png
8,6,24,1,1,557.13,nonwex2_3.png
8,7,1,2,1,757,nonwin2_10.png
8,7,2,1,1,749.71,nonwin3.png
8,7,3,1,1,534.44,nonwex10.png
8,7,4,1,1,575.18,nonwex12.png
8,7,5,2,1,527.9,nonwex2_12.png
8,7,6,1,1,544.63,nonwin9.png
8,7,7,2,1,713.34,nonwin2_9.png
8,7,8,2,1,794.5,nonwin5.png
8,7,9,1,1,674.81,nonwin2_5.png
8,7,10,1,1,603.55,nonwex2_3.png
8,7,11,2,1,884.29,nonwin11.png
8,7,12,1,1,613.02,nonwex2_2.png
8,7,13,1,1,757.72,nonwex9.png
8,7,14,2,1,606.48,nonwex2_1.png
8,7,15,1,1,887.13,nonwin4.png
8,7,16,2,1,599.89,nonwex7.png
8,7,17,2,1,960.67,nonwin2_12.png
8,7,18,2,1,873.4,nonwex1.png
8,7,19,1,1,738.12,nonwex2_4.png
8,7,20,1,1,978.88,nonwin2_6.png
8,7,21,2,1,891.59,nonwex5.png
8,7,22,1,1,900.29,nonwin10.png
8,7,23,2,1,733.05,nonwex2_10.png
8,7,24,1,1,789.76,nonwin2_3.png
8,8,1,1,1,586.06,nonwin2_5.png
8,8,2,1,1,498.79,nonwex2_4.png
8,8,3,1,1,571.53,nonwex2_3.png
8,8,4,1,1,596.26,nonwex2_2.png
8,8,5,1,1,668.95,nonwin9.png
8,8,6,1,1,669.72,nonwex12.png
8,8,7,1,1,726.44,nonwin10.png
8,8,8,2,1,679.13,nonwin2_12.png
8,8,9,1,1,815.9,nonwin4.png
8,8,10,1,1,928.61,nonwex9.png
8,8,11,2,1,897.33,nonwex2_10.png
8,8,12,1,1,634.05,nonwin2_3.png
8,8,13,1,1,570.8,nonwex10.png
8,8,14,2,1,651.55,nonwex7.png
8,8,15,2,1,692.3,nonwin2_10.png
8,8,16,2,1,831.65,nonwin11.png
8,8,17,2,1,856.43,nonwin2_6.png
8,8,18,2,1,641.15,nonwex2_12.png
8,8,19,2,1,649.9,nonwin5.png
8,8,20,1,1,658.59,nonwin3.png
8,8,21,2,1,619.34,nonwex1.png
8,8,22,2,1,652.05,nonwex2_1.png
8,8,23,2,1,740.82,nonwin2_9.png
8,8,24,2,1,701.51,nonwex5.png
9,1,1,2,1,757.98,nonwin2_1.png
9,1,2,2,1,729.55,nonwin2_7.png
9,1,3,2,1,765.76,nonwin2.png
9,1,4,2,1,705.99,nonwin2_8.png
9,1,5,2,1,774.28,nonwin7.png
9,1,6,2,1,834.44,nonwex2_8.png
9,1,7,1,1,758.69,nonwin2_4.png
9,1,8,2,1,786.9,nonwin2_11.png
9,1,9,2,1,847.19,nonwex6.png
9,1,10,2,1,915.43,nonwex4.png
9,1,11,1,1,991.68,nonwex3.png
9,1,12,2,1,851.89,nonwex8.png
9,1,13,1,1,856.12,nonwex2_9.png
9,1,14,2,1,844.33,nonwex2_5.png
9,1,15,1,1,952.58,nonwin12.png
9,1,16,2,1,804.81,nonwex2.png
9,1,17,2,1,897.02,nonwin2_2.png
9,1,18,2,1,1013.25,nonwex2_11.png
9,1,19,2,1,785.44,nonwin1.png
9,1,20,1,1,957.66,nonwex2_7.png
9,1,21,1,1,617.95,nonwin8.png
9,1,22,2,1,694.18,nonwex2_6.png
9,1,23,1,1,834.42,nonwin6.png
9,1,24,1,1,782.61,nonwex11.png
9,2,1,1,1,746.88,nonwin8.png
9,2,2,2,1,847.11,nonwin12.png
9,2,3,2,1,739.29,nonwin7.png
9,2,4,1,1,711.58,nonwin2_4.png
9,2,5,2,1,867.8,nonwin2_8.png
9,2,6,2,1,792.04,nonwex4.png
9,2,7,2,1,740.21,nonwin2_7.png
9,2,8,1,1,808.43,nonwex2_9.png
9,2,9,2,1,740.73,nonwex2_5.png
9,2,10,2,1,664.95,nonwex2.png
9,2,11,2,1,757.14,nonwin2.png
9,2,12,2,1,697.4,nonwin2_2.png
9,2,13,2,1,701.65,nonwex11.png
9,2,14,2,1,633.87,nonwex2_8.png
9,2,15,2,1,718.06,nonwin2_11.png
9,2,16,2,1,706.34,nonwex6.png
9,2,17,2,1,654.57,nonwex8.png
9,2,18,1,1,650.77,nonwex2_6.png
9,2,19,1,1,703,nonwin6.png
9,2,20,2,1,811.24,nonwin1.png
9,2,21,1,1,783.45,nonwex2_7.png
9,2,22,2,1,819.7,nonwex3.png
9,2,23,2,1,751.9,nonwin2_1.png
9,2,24,2,1,724.18,nonwex2_11.png
9,3,1,2,1,698.66,nonwin2_1.png
9,3,2,2,1,662.87,nonwin2.png
9,3,3,1,1,787.07,nonwin2_7.png
9,3,4,2,1,935.32,nonwin12.png
9,3,5,1,1,603.5,nonwin8.png
9,3,6,2,1,703.77,nonwin2_11.png
9,3,7,1,1,676.02,nonwex11.png
9,3,8,2,1,560.19,nonwex2_8.png
9,3,9,1,1,740.49,nonwex2_9.png
9,3,10,2,1,608.67,nonwin2_2.png
9,3,11,2,1,836.93,nonwex2_11.png
9,3,12,2,1,649.17,nonwex8.png
9,3,13,1,1,581.35,nonwin6.png
9,3,14,1,1,625.63,nonwex4.png
9,3,15,2,1,621.86,nonwex2_5.png
9,3,16,1,1,730.05,nonwex2_7.png
9,3,17,1,1,702.28,nonwex2_6.png
9,3,18,2,1,666.55,nonwex2.png
9,3,19,2,1,590.79,nonwex3.png
9,3,20,2,1,522.98,nonwin7.png
9,3,21,2,1,559.2,nonwin1.png
9,3,22,2,1,611.45,nonwex6.png
9,3,23,2,1,591.67,nonwin2_8.png
9,3,24,1,1,611.88,nonwin2_4.png
9,4,1,2,1,579.59,nonwex2.png
9,4,2,1,1,463.84,nonwex6.png
9,4,3,1,1,516.03,nonwex11.png
9,4,4,2,1,432.23,nonwex2_8.png
9,4,5,2,1,356.49,nonwin2_4.png
9,4,6,1,1,448.76,nonwin2_11.png
9,4,7,2,1,412.99,nonwex4.png
9,4,8,2,1,441.22,nonwex2_11.png
9,4,9,2,1,365.43,nonwin2_1.png
9,4,10,2,1,521.68,nonwin2.png
9,4,11,2,1,453.86,nonwex2_5.png
9,4,12,2,1,618.14,nonwin6.png
9,4,13,2,1,654.31,nonwin7.png
9,4,14,1,1,642.56,nonwin2_8.png
9,4,15,2,1,542.77,nonwin2_7.png
9,4,16,1,1,595.01,nonwex3.png
9,4,17,1,1,543.3,nonwin8.png
9,4,18,1,1,571.49,nonwex2_7.png
9,4,19,2,1,527.7,nonwin2_2.png
9,4,20,2,1,723.98,nonwin1.png
9,4,21,1,1,624.21,nonwex2_9.png
9,4,22,1,1,596.42,nonwex8.png
9,4,23,2,1,616.61,nonwin12.png
9,4,24,2,1,604.9,nonwex2_6.png
9,5,1,1,1,681.67,nonwin2_7.png
9,5,2,1,1,693.96,nonwin2_11.png
9,5,3,2,1,562.19,nonwex3.png
9,5,4,1,1,526.38,nonwin2_4.png
9,5,5,2,1,474.64,nonwin2_2.png
9,5,6,2,1,454.88,nonwin2_8.png
9,5,7,2,1,379.07,nonwex2_9.png
9,5,8,1,1,447.3,nonwex8.png
9,5,9,2,1,371.58,nonwex11.png
9,5,10,1,1,551.8,nonwin8.png
9,5,11,1,1,756,nonwin1.png
9,5,12,2,1,600.24,nonwex2_8.png
9,5,13,2,1,468.5,nonwex2_7.png
9,5,14,2,1,488.71,nonwex2_5.png
9,5,15,2,1,300.92,nonwex4.png
9,5,16,2,1,321.19,nonwin2.png
9,5,17,2,1,421.42,nonwex2_11.png
9,5,18,1,1,569.62,nonwex6.png
9,5,19,2,1,605.86,nonwin2_1.png
9,5,20,1,1,666.05,nonwin12.png
9,5,21,2,1,550.27,nonwex2.png
9,5,22,1,1,610.56,nonwex2_6.png
9,5,23,1,1,614.74,nonwin6.png
9,5,24,2,1,483.03,nonwin7.png
9,6,1,1,1,686.37,nonwex2.png
9,6,2,1,1,546.6,nonwex2_9.png
9,6,3,1,1,494.9,nonwex6.png
9,6,4,2,1,475.08,nonwin2_4.png
9,6,5,2,1,479.31,nonwin2.png
9,6,6,2,1,531.59,nonwex8.png
9,6,7,2,1,583.82,nonwin2_1.png
9,6,8,1,1,852.05,nonwex2_8.png
9,6,9,1,1,576.28,nonwin8.png
9,6,10,2,1,668.51,nonwin1.png
9,6,11,1,1,576.71,nonwex4.png
9,6,12,1,1,476.94,nonwin2_2.png
9,6,13,1,1,497.2,nonwex11.png
9,6,14,1,1,501.37,nonwex2_6.png
9,6,15,2,1,513.63,nonwex3.png
9,6,16,2,1,557.83,nonwin2_8.png
9,6,17,1,1,482.1,nonwex2_5.png
9,6,18,1,1,582.35,nonwin2_7.png
9,6,19,2,1,482.56,nonwin7.png
9,6,20,2,1,462.79,nonwex2_11.png
9,6,21,2,1,571,nonwin12.png
9,6,22,1,1,655.27,nonwex2_7.png
9,6,23,1,1,555.5,nonwin2_11.png
9,6,24,2,1,239.72,nonwin6.png
9,7,1,2,1,673.84,nonwex8.png
9,7,2,1,1,566.05,nonwex6.png
9,7,3,1,1,650.28,nonwex2_7.png
9,7,4,2,1,542.5,nonwin7.png
9,7,5,2,1,554.75,nonwin1.png
9,7,6,2,1,502.98,nonwin2_8.png
9,7,7,2,1,523.18,nonwex2_8.png
9,7,8,2,1,695.41,nonwin2_2.png
9,7,9,1,1,611.67,nonwin8.png
9,7,10,2,1,767.88,nonwin2.png
9,7,11,1,1,628.08,nonwex4.png
9,7,12,1,1,576.32,nonwin2_4.png
9,7,13,1,1,572.59,nonwin12.png
9,7,14,1,1,648.79,nonwin2_1.png
9,7,15,1,1,645.04,nonwin6.png
9,7,16,1,1,601.28,nonwex11.png
9,7,17,2,1,581.47,nonwin2_11.png
9,7,18,1,1,713.74,nonwex2_6.png
9,7,19,1,1,709.97,nonwex2_9.png
9,7,20,1,1,666.15,nonwex2_11.png
9,7,21,1,1,566.44,nonwin2_7.png
9,7,22,2,1,570.66,nonwex2_5.png
9,7,23,2,1,550.81,nonwex2.png
9,7,24,2,1,627.12,nonwex3.png
9,8,1,2,1,743.85,nonwex2_8.png
9,8,2,1,1,668.01,nonwin2_11.png
9,8,3,1,1,528.24,nonwex11.png
9,8,4,2,1,660.5,nonwex8.png
9,8,5,1,1,672.73,nonwin2.png
9,8,6,1,1,660.94,nonwex3.png
9,8,7,1,1,633.22,nonwex2_6.png
9,8,8,1,1,613.45,nonwin1.png
9,8,9,1,1,609.63,nonwin2_4.png
9,8,10,1,1,693.85,nonwin12.png
9,8,11,1,1,586.15,nonwin8.png
9,8,12,2,1,550.38,nonwex2_5.png
9,8,13,1,1,658.59,nonwin6.png
9,8,14,2,1,614.82,nonwex2_7.png
9,8,15,1,1,651.07,nonwin2_7.png
9,8,16,2,1,591.26,nonwex2.png
9,8,17,1,1,659.49,nonwex4.png
9,8,18,1,1,447.71,nonwex6.png
9,8,19,2,1,547.99,nonwin2_1.png
9,8,20,1,1,600.2,nonwin2_2.png
9,8,21,1,1,628.42,nonwex2_9.png
9,8,22,2,1,736.68,nonwin7.png
9,8,23,1,1,676.91,nonwex2_11.png
9,8,24,2,1,729.1,nonwin2_8.png
10,1,1,2,1,493.83,nonwex2_9.png
10,1,2,1,1,694.6,nonwin11.png
10,1,3,2,1,647.31,nonwin2_7.png
10,1,4,2,1,720.08,nonwin4.png
10,1,5,2,1,752.82,nonwin9.png
10,1,6,2,1,585.54,nonwin1.png
10,1,7,2,1,722.22,nonwex9.png
10,1,8,1,1,594.96,nonwex2_3.png
10,1,9,2,1,635.75,nonwin2.png
10,1,10,2,1,660.48,nonwex2_11.png
10,1,11,2,1,583.82,nonwex2.png
10,1,12,2,1,643.29,nonwex8.png
10,1,13,2,1,550.69,nonwex2_5.png
10,1,14,2,1,626.08,nonwex2_1.png
10,1,15,2,1,589.45,nonwex5.png
10,1,16,1,1,656.88,nonwin6.png
10,1,17,2,1,588.3,nonwex2_12.png
10,1,18,2,1,495.7,nonwin2_11.png
10,1,19,2,1,619.08,nonwex3.png
10,1,20,2,1,630.52,nonwin2_6.png
10,1,21,0,0,0,nonwex2_8.png
10,1,22,1,1,605.24,nonwin2_12.png
10,1,23,2,1,552.66,nonwex10.png
10,1,24,2,1,468.12,nonwex7.png
10,2,1,1,1,1024.97,nonwex2_1.png
10,2,2,2,1,665.67,nonwin2_11.png
10,2,3,1,1,634.43,nonwin2_12.png
10,2,4,2,1,787.16,nonwin1.png
10,2,5,2,1,830.57,nonwex2_9.png
10,2,6,1,1,647.29,nonwex3.png
10,2,7,2,1,383.92,nonwin6.png
10,2,8,2,1,576.72,nonwex2_12.png
10,2,9,2,1,620.09,nonwin2_7.png
10,2,10,2,1,620.87,nonwex2_8.png
10,2,11,2,1,661.58,nonwin9.png
10,2,12,0,0,0,nonwex10.png
10,2,13,2,1,647.01,nonwex9.png
10,2,14,2,1,575.72,nonwex2_11.png
10,2,15,1,1,816.52,nonwex2_5.png
10,2,16,2,1,625.18,nonwin2.png
10,2,17,2,1,497.93,nonwin4.png
10,2,18,2,1,458.65,nonwex2.png
10,2,19,1,1,763.39,nonwin11.png
10,2,20,1,1,612.15,nonwex2_3.png
10,2,21,2,1,628.82,nonwex8.png
10,2,22,2,1,757.58,nonwex5.png
10,2,23,0,0,0,nonwex7.png
10,2,24,2,1,687,nonwin2_6.png
10,3,1,2,1,769.45,nonwex2_11.png
10,3,2,2,1,698.26,nonwex2_9.png
10,3,3,2,1,586.97,nonwex2.png
10,3,4,0,0,0,nonwin6.png
10,3,5,2,1,748.36,nonwex7.png
10,3,6,1,1,725.13,nonwex2_1.png
10,3,7,1,1,845.83,nonwin2_12.png
10,3,8,2,1,558.6,nonwex9.png
10,3,9,1,1,647.29,nonwex2_3.png
10,3,10,2,1,522.71,nonwin2_7.png
10,3,11,2,1,619.47,nonwex2_5.png
10,3,12,2,1,732.2,nonwin9.png
10,3,13,2,1,567.55,nonwex2_12.png
10,3,14,2,1,592.32,nonwex3.png
10,3,15,2,1,481.05,nonwex2_8.png
10,3,16,2,1,489.78,nonwex5.png
10,3,17,2,1,429.15,nonwin2_11.png
10,3,18,1,1,597.9,nonwin11.png
10,3,19,2,1,446.57,nonwex8.png
10,3,20,2,1,511.36,nonwin2.png
10,3,21,2,1,424.09,nonwin4.png
10,3,22,2,1,432.81,nonwex10.png
10,3,23,2,1,537.5,nonwin2_6.png
10,3,24,2,1,402.27,nonwin1.png
10,4,1,2,1,579.93,nonwex9.png
10,4,2,2,1,596.69,nonwex5.png
10,4,3,2,1,685.4,nonwex7.png
10,4,4,2,1,606.15,nonwin1.png
10,4,5,2,1,582.85,nonwex2_11.png
10,4,6,1,1,863.61,nonwex2_1.png
10,4,7,2,1,640.29,nonwex8.png
10,4,8,1,1,545.07,nonwin11.png
10,4,9,1,1,697.76,nonwin2_12.png
10,4,10,2,1,594.52,nonwex2_5.png
10,4,11,2,1,563.19,nonwin2_11.png
10,4,12,2,1,555.93,nonwex2_12.png
10,4,13,2,1,676.71,nonwex2_8.png
10,4,14,2,1,581.43,nonwin2_7.png
10,4,15,2,1,566.16,nonwex2.png
10,4,16,2,1,662.89,nonwex2_9.png
10,4,17,2,1,503.61,nonwin4.png
10,4,18,1,1,664.28,nonwex2_3.png
10,4,19,2,1,745.07,nonwin9.png
10,4,20,2,1,705.8,nonwex3.png
10,4,21,2,1,570.52,nonwex10.png
10,4,22,2,1,683.25,nonwin2_6.png
10,4,23,2,1,563.98,nonwin6.png
10,4,24,2,1,612.7,nonwin2.png
10,5,1,2,1,659.67,nonwin9.png
10,5,2,2,1,860.23,nonwin6.png
10,5,3,2,1,701.06,nonwex2_9.png
10,5,4,2,1,613.82,nonwin2_6.png
10,5,5,2,1,798.57,nonwex3.png
10,5,6,2,1,495.3,nonwex2_5.png
10,5,7,1,1,583.97,nonwin2_12.png
10,5,8,2,1,547.44,nonwex9.png
10,5,9,2,1,540.15,nonwex2_12.png
10,5,10,2,1,476.85,nonwin2.png
10,5,11,2,1,445.56,nonwin2_7.png
10,5,12,2,1,446.33,nonwex2_8.png
10,5,13,2,1,455,nonwex2.png
10,5,14,1,1,559.78,nonwin11.png
10,5,15,2,1,576.47,nonwin1.png
10,5,16,1,1,601.23,nonwex2_3.png
10,5,17,2,1,633.97,nonwex10.png
10,5,18,2,1,482.68,nonwin4.png
10,5,19,2,1,547.38,nonwin2_11.png
10,5,20,2,1,876.15,nonwex2_1.png
10,5,21,2,1,572.85,nonwex8.png
10,5,22,2,1,597.57,nonwex2_11.png
10,5,23,2,1,566.28,nonwex5.png
10,5,24,1,1,647,nonwex7.png
10,6,1,2,1,536.67,nonwex2_12.png
10,6,2,1,1,593.46,nonwex2_1.png
10,6,3,2,1,362.14,nonwex2.png
10,6,4,2,1,482.87,nonwex2_5.png
10,6,5,2,1,299.63,nonwex10.png
10,6,6,2,1,436.36,nonwin4.png
10,6,7,2,1,477.09,nonwin1.png
10,6,8,2,1,309.79,nonwin2_6.png
10,6,9,2,1,278.54,nonwex3.png
10,6,10,2,1,255.27,nonwin11.png
10,6,11,2,1,375.9,nonwex2_9.png
10,6,12,2,1,464.68,nonwex2_8.png
10,6,13,1,1,625.41,nonwin6.png
10,6,14,2,1,386.14,nonwex9.png
10,6,15,2,1,466.88,nonwin2.png
10,6,16,2,1,395.64,nonwex5.png
10,6,17,2,1,556.31,nonwex2_11.png
10,6,18,2,1,837.09,nonwin9.png
10,6,19,1,1,613.79,nonwex7.png
10,6,20,2,1,510.52,nonwex8.png
10,6,21,1,1,623.28,nonwex2_3.png
10,6,22,1,1,799.97,nonwin2_12.png
10,6,23,2,1,592.73,nonwin2_11.png
10,6,24,2,1,513.46,nonwin2_7.png
10,7,1,2,1,730.27,nonwex7.png
10,7,2,2,1,490.95,nonwin2.png
10,7,3,2,1,435.72,nonwex2_12.png
10,7,4,2,1,532.45,nonwex2.png
10,7,5,1,1,765.18,nonwex2_1.png
10,7,6,2,1,493.84,nonwex8.png
10,7,7,2,1,494.58,nonwex2_9.png
10,7,8,2,1,591.33,nonwin2_7.png
10,7,9,2,1,488.05,nonwex9.png
10,7,10,2,1,480.79,nonwin6.png
10,7,11,2,1,553.47,nonwin1.png
10,7,12,2,1,458.27,nonwex10.png
10,7,13,2,1,490.96,nonwex2_8.png
10,7,14,2,1,483.7,nonwin2_11.png
10,7,15,2,1,492.45,nonwin4.png
10,7,16,2,1,453.15,nonwex2_11.png
10,7,17,2,1,437.9,nonwin2_6.png
10,7,18,1,1,590.6,nonwin2_12.png
10,7,19,2,1,423.36,nonwex3.png
10,7,20,2,1,440.07,nonwex5.png
10,7,21,0,0,0,nonwin9.png
10,7,22,2,1,473.53,nonwex2_5.png
10,7,23,1,1,594.27,nonwin11.png
10,7,24,1,1,571,nonwex2_3.png
10,8,1,2,1,564.57,nonwin9.png
10,8,2,1,1,861.38,nonwex3.png
10,8,3,2,1,654.11,nonwex2_11.png
10,8,4,2,1,558.79,nonwex8.png
10,8,5,2,1,527.51,nonwex10.png
10,8,6,2,1,664.27,nonwex5.png
10,8,7,2,1,729.01,nonwin2_6.png
10,8,8,2,1,489.75,nonwin2_7.png
10,8,9,1,1,546.43,nonwex2_3.png
10,8,10,2,1,499.19,nonwex9.png
10,8,11,2,1,571.87,nonwex2.png
10,8,12,2,1,484.61,nonwin2.png
10,8,13,1,1,573.38,nonwin2_12.png
10,8,14,2,1,398.1,nonwex2_5.png
10,8,15,2,1,398.81,nonwex2_9.png
10,8,16,2,1,407.51,nonwex2_8.png
10,8,17,2,1,544.25,nonwex2_12.png
10,8,18,2,1,408.81,nonwin1.png
10,8,19,2,1,489.74,nonwin6.png
10,8,20,2,1,338.47,nonwex2_1.png
10,8,21,2,1,387.17,nonwex7.png
10,8,22,1,1,491.93,nonwin11.png
10,8,23,2,1,484.63,nonwin2_11.png
10,8,24,2,1,397.38,nonwin4.png
11,1,1,1,1,937.69,nonwex1.png
11,1,2,2,1,735.76,nonwin5.png
11,1,3,2,1,776.42,nonwin10.png
11,1,4,1,1,609.2,nonwin2_4.png
11,1,5,2,1,1129.91,nonwin2_9.png
11,1,6,2,1,682.63,nonwex6.png
11,1,7,2,1,659.34,nonwin2_2.png
11,1,8,1,1,788.13,nonwex12.png
11,1,9,2,1,548.86,nonwex2_6.png
11,1,10,2,1,789.56,nonwin2_3.png
11,1,11,2,1,864.96,nonwin8.png
11,1,12,2,1,692.39,nonwin7.png
11,1,13,2,1,559.82,nonwex2_7.png
11,1,14,2,1,579.19,nonwin2_10.png
11,1,15,1,1,742.63,nonwex11.png
11,1,16,1,1,642.04,nonwin12.png
11,1,17,2,1,701.39,nonwin2_5.png
11,1,18,2,1,784.86,nonwex2_2.png
11,1,19,1,1,812.23,nonwex2_10.png
11,1,20,2,1,631.64,nonwex2_4.png
11,1,21,2,1,859.07,nonwin3.png
11,1,22,2,1,750.47,nonwin2_8.png
11,1,23,2,1,681.87,nonwin2_1.png
11,1,24,1,1,909.3,nonwex4.png
11,2,1,1,1,587.28,nonwin2_10.png
11,2,2,1,1,660.02,nonwin7.png
11,2,3,1,1,700.7,nonwex2_2.png
11,2,4,1,1,645.49,nonwin12.png
11,2,5,2,1,704.91,nonwex2_4.png
11,2,6,2,1,628.27,nonwin3.png
11,2,7,2,1,637.01,nonwin8.png
11,2,8,2,1,1021.8,nonwin5.png
11,2,9,1,1,550.51,nonwin2_4.png
11,2,10,2,1,647.19,nonwin2_8.png
11,2,11,1,1,687.97,nonwin2_2.png
11,2,12,2,1,624.71,nonwin2_9.png
11,2,13,2,1,681.45,nonwin10.png
11,2,14,2,1,562.17,nonwin2_3.png
11,2,15,1,1,642.86,nonwex6.png
11,2,16,1,1,579.64,nonwin2_1.png
11,2,17,2,1,556.37,nonwin2_5.png
11,2,18,2,1,749.12,nonwex12.png
11,2,19,1,1,589.83,nonwex2_10.png
11,2,20,1,1,534.53,nonwex1.png
11,2,21,2,1,671.31,nonwex11.png
11,2,22,2,1,503.94,nonwex4.png
11,2,23,1,1,816.76,nonwex2_6.png
11,2,24,2,1,641.5,nonwex2_7.png
11,3,1,1,1,620,nonwex2_6.png
11,3,2,1,1,724.79,nonwin2_1.png
11,3,3,1,1,637.45,nonwin7.png
11,3,4,1,1,622.24,nonwin2_2.png
11,3,5,2,1,598.95,nonwin2_9.png
11,3,6,2,1,783.69,nonwex2_7.png
11,3,7,2,1,712.43,nonwin3.png
11,3,8,2,1,1113.19,nonwex2_2.png
11,3,9,1,1,553.75,nonwin2_4.png
11,3,10,1,1,501.27,nonwex11.png
11,3,11,2,1,598,nonwin5.png
11,3,12,1,1,758.74,nonwin2_3.png
11,3,13,2,1,602.17,nonwin2_10.png
11,3,14,2,1,898.85,nonwin2_8.png
11,3,15,2,1,835.64,nonwin8.png
11,3,16,2,1,988.32,nonwin10.png
11,3,17,2,1,791.77,nonwex1.png
11,3,18,1,1,720.49,nonwex4.png
11,3,19,2,1,641.21,nonwex12.png
11,3,20,2,1,625.89,nonwex2_4.png
11,3,21,1,1,626.61,nonwex6.png
11,3,22,2,1,659.38,nonwin2_5.png
11,3,23,2,1,620.13,nonwin12.png
11,3,24,2,1,612.86,nonwex2_10.png
11,4,1,1,1,567.99,nonwin2_4.png
11,4,2,1,1,480.73,nonwin5.png
11,4,3,2,1,481.44,nonwin2_9.png
11,4,4,1,1,610.2,nonwex12.png
11,4,5,2,1,493.53,nonwex2_7.png
11,4,6,2,1,574.32,nonwin8.png
11,4,7,2,1,687.06,nonwin3.png
11,4,8,1,1,783.79,nonwin2_3.png
11,4,9,1,1,744.48,nonwex11.png
11,4,10,2,1,593.24,nonwin2_8.png
11,4,11,2,1,641.97,nonwex2_10.png
11,4,12,1,1,586.69,nonwex2_6.png
11,4,13,2,1,627.41,nonwex2_2.png
11,4,14,2,1,636.15,nonwin7.png
11,4,15,2,1,612.88,nonwex6.png
11,4,16,2,1,629.6,nonwex2_4.png
11,4,17,2,1,478.28,nonwin2_5.png
11,4,18,2,1,759.04,nonwin2_1.png
11,4,19,2,1,535.75,nonwin2_2.png
11,4,20,2,1,536.5,nonwex1.png
11,4,21,1,1,577.22,nonwin12.png
11,4,22,2,1,593.97,nonwin10.png
11,4,23,2,1,578.69,nonwin2_10.png
11,4,24,1,1,643.39,nonwex4.png
11,5,1,2,1,639.23,nonwex11.png
11,5,2,2,1,744.01,nonwin2_3.png
11,5,3,1,1,656.73,nonwex12.png
11,5,4,2,1,577.45,nonwin2_1.png
11,5,5,2,1,546.18,nonwex2_4.png
11,5,6,1,1,570.87,nonwex2_10.png
11,5,7,2,1,475.63,nonwin3.png
11,5,8,2,1,508.36,nonwin7.png
11,5,9,1,1,629.05,nonwex4.png
11,5,10,2,1,701.83,nonwex2_2.png
11,5,11,1,1,502.5,nonwin2_2.png
11,5,12,1,1,607.27,nonwin8.png
11,5,13,1,1,688.01,nonwex2_6.png
11,5,14,2,1,576.73,nonwin2_5.png
11,5,15,1,1,793.46,nonwex6.png
11,5,16,2,1,562.15,nonwin2_10.png
11,5,17,2,1,570.86,nonwex2_7.png
11,5,18,1,1,670.11,nonwex1.png
11,5,19,1,1,673.72,nonwin12.png
11,5,20,2,1,594.42,nonwin2_9.png
11,5,21,2,1,635.17,nonwin2_8.png
11,5,22,2,1,579.89,nonwin2_4.png
11,5,23,2,1,564.57,nonwin5.png
11,5,24,2,1,501.34,nonwin10.png
11,6,1,1,1,799,nonwin2_10.png
11,6,2,1,1,623.75,nonwin10.png
11,6,3,1,1,832.49,nonwex1.png
11,6,4,2,1,593.21,nonwex6.png
11,6,5,2,1,577.93,nonwex2_4.png
11,6,6,1,1,874.68,nonwin2_2.png
11,6,7,2,1,747.4,nonwin2_3.png
11,6,8,1,1,724.05,nonwin2_4.png
11,6,9,2,1,652.82,nonwin2_5.png
11,6,10,2,1,669.54,nonwin2_9.png
11,6,11,2,1,734.26,nonwin12.png
11,6,12,1,1,615,nonwex4.png
11,6,13,2,1,615.75,nonwex12.png
11,6,14,2,1,744.47,nonwin7.png
11,6,15,2,1,641.22,nonwex2_7.png
11,6,16,2,1,673.94,nonwin5.png
11,6,17,0,0,0,nonwex2_6.png
11,6,18,2,1,771.41,nonwex2_2.png
11,6,19,2,1,692.14,nonwin3.png
11,6,20,2,1,796.86,nonwin8.png
11,6,21,2,1,933.56,nonwex11.png
11,6,22,1,1,766.28,nonwex2_10.png
11,6,23,2,1,649.66,nonwin2_8.png
11,6,24,2,1,810.42,nonwin2_1.png
11,7,1,2,1,737.39,nonwin2_3.png
11,7,2,1,1,634.18,nonwex1.png
11,7,3,2,1,570.9,nonwin2_10.png
11,7,4,1,1,710.31,nonwin2_9.png
11,7,5,2,1,519.03,nonwex2_7.png
11,7,6,1,1,791.76,nonwex6.png
11,7,7,2,1,656.43,nonwin3.png
11,7,8,1,1,681.22,nonwex4.png
11,7,9,1,1,801.91,nonwex2_10.png
11,7,10,2,1,722.66,nonwin10.png
11,7,11,1,1,723.37,nonwin12.png
11,7,12,1,1,732.11,nonwex2_6.png
11,7,13,2,1,756.87,nonwin5.png
11,7,14,2,1,757.6,nonwin2_8.png
11,7,15,2,1,830.29,nonwin8.png
11,7,16,2,1,639.03,nonwex2_2.png
11,7,17,0,0,0,nonwin7.png
11,7,18,1,1,752.52,nonwex11.png
11,7,19,2,1,721.21,nonwin2_5.png
11,7,20,2,1,961.98,nonwex12.png
11,7,21,2,1,898.67,nonwex2_4.png
11,7,22,2,1,667.42,nonwin2_1.png
11,7,23,1,1,780.16,nonwin2_4.png
11,7,24,2,1,564.87,nonwin2_2.png
11,8,1,1,1,770.73,nonwin2_4.png
11,8,2,2,1,539.49,nonwex2_2.png
11,8,3,1,1,524.22,nonwin7.png
11,8,4,1,1,572.92,nonwex11.png
11,8,5,0,0,0,nonwex4.png
11,8,6,2,1,694.41,nonwin2_2.png
11,8,7,2,1,647.08,nonwin2_9.png
11,8,8,2,1,911.88,nonwex6.png
11,8,9,2,1,672.57,nonwex1.png
11,8,10,2,1,673.32,nonwin5.png
11,8,11,2,1,706.05,nonwin3.png
11,8,12,1,1,866.79,nonwex12.png
11,8,13,2,1,595.46,nonwin2_10.png
11,8,14,2,1,718.83,nonwin8.png
11,8,15,2,1,783.64,nonwin2_8.png
11,8,16,2,1,728.36,nonwin2_3.png
11,8,17,2,1,913.07,nonwin2_5.png
11,8,18,0,0,0,nonwin12.png
11,8,19,2,1,674.55,nonwin2_1.png
11,8,20,1,1,619.22,nonwex2_10.png
11,8,21,2,1,539.96,nonwin10.png
11,8,22,1,1,780.75,nonwex2_6.png
11,8,23,2,1,733.44,nonwex2_4.png
11,8,24,2,1,630.13,nonwex2_7.png
12,1,1,1,1,877,nonwex2_10.png
12,1,2,1,1,907.18,nonwex2_12.png
12,1,3,1,1,739.95,nonwex7.png
12,1,4,1,1,1108.74,nonwex1.png
12,1,5,2,1,621.45,nonwex2_4.png
12,1,6,1,1,662.29,nonwin10.png
12,1,7,1,1,639.04,nonwin2_6.png
12,1,8,2,1,735.86,nonwex2_2.png
12,1,9,1,1,720.64,nonwin2_5.png
12,1,10,1,1,969.39,nonwin3.png
12,1,11,2,1,818.16,nonwin9.png
12,1,12,2,1,738.98,nonwin5.png
12,1,13,2,1,819.72,nonwin11.png
12,1,14,2,1,876.55,nonwex2_1.png
12,1,15,2,1,877.33,nonwin4.png
12,1,16,2,1,784.72,nonwex2_3.png
12,1,17,1,1,873.54,nonwin2_12.png
12,1,18,1,1,914.34,nonwin2_3.png
12,1,19,1,1,747.1,nonwex12.png
12,1,20,2,1,862.49,nonwex5.png
12,1,21,1,1,927.36,nonwin2_10.png
12,1,22,2,1,824.09,nonwex9.png
12,1,23,1,1,792.92,nonwin2_9.png
12,1,24,2,1,676.32,nonwex10.png
12,2,1,1,1,858.44,nonwex5.png
12,2,2,1,1,963.17,nonwex9.png
12,2,3,1,1,723.96,nonwin2_6.png
12,2,4,1,1,564.76,nonwex7.png
12,2,5,1,1,661.54,nonwex2_10.png
12,2,6,2,1,630.27,nonwex10.png
12,2,7,1,1,647.1,nonwin4.png
12,2,8,1,1,727.88,nonwin2_5.png
12,2,9,2,1,576.66,nonwex2_2.png
12,2,10,1,1,628.08,nonwin2_12.png
12,2,11,1,1,572.9,nonwin10.png
12,2,12,1,1,949.67,nonwin2_3.png
12,2,13,2,1,782.47,nonwex2_12.png
12,2,14,1,1,671.2,nonwex1.png
12,2,15,1,1,648,nonwex12.png
12,2,16,1,1,848.75,nonwin2_10.png
12,2,17,2,1,713.59,nonwin5.png
12,2,18,2,1,781.04,nonwin3.png
12,2,19,2,1,693.83,nonwin11.png
12,2,20,1,1,790.55,nonwex2_1.png
12,2,21,2,1,807.38,nonwin2_9.png
12,2,22,2,1,736.11,nonwin9.png
12,2,23,2,1,776.89,nonwex2_3.png
12,2,24,2,1,729.71,nonwex2_4.png
12,3,1,2,1,639.51,nonwex10.png
12,3,2,1,1,712.38,nonwin2_10.png
12,3,3,1,1,577.16,nonwin2_5.png
12,3,4,1,1,713.88,nonwex2_1.png
12,3,5,2,1,778.72,nonwin5.png
12,3,6,2,1,571.45,nonwin3.png
12,3,7,1,1,588.25,nonwin2_12.png
12,3,8,2,1,685.02,nonwex2_4.png
12,3,9,1,1,709.81,nonwin11.png
12,3,10,1,1,590.61,nonwex2_10.png
12,3,11,1,1,767.38,nonwin2_3.png
12,3,12,1,1,624.13,nonwex12.png
12,3,13,2,1,608.97,nonwex2_3.png
12,3,14,1,1,577.75,nonwin10.png
12,3,15,1,1,818.51,nonwex1.png
12,3,16,2,1,643.26,nonwex2_2.png
12,3,17,2,1,556.07,nonwin9.png
12,3,18,2,1,740.84,nonwex2_12.png
12,3,19,2,1,677.61,nonwex5.png
12,3,20,1,1,670.44,nonwin2_6.png
12,3,21,1,1,727.19,nonwex9.png
12,3,22,1,1,647.91,nonwex7.png
12,3,23,2,1,696.75,nonwin2_9.png
12,3,24,1,1,737.51,nonwin4.png
12,4,1,2,1,868.58,nonwin5.png
12,4,2,1,1,749.38,nonwin2_5.png
12,4,3,1,1,726.12,nonwex2_10.png
12,4,4,1,1,542.91,nonwex7.png
12,4,5,1,1,623.72,nonwex9.png
12,4,6,1,1,744.45,nonwin9.png
12,4,7,1,1,769.24,nonwex1.png
12,4,8,2,1,714.06,nonwex5.png
12,4,9,1,1,754.81,nonwin2_12.png
12,4,10,1,1,587.61,nonwin10.png
12,4,11,2,1,876.42,nonwex2_1.png
12,4,12,2,1,613.15,nonwex2_12.png
12,4,13,1,1,581.97,nonwin2_6.png
12,4,14,2,1,614.7,nonwin11.png
12,4,15,1,1,607.54,nonwin4.png
12,4,16,2,1,544.27,nonwex2_3.png
12,4,17,2,1,465.04,nonwin3.png
12,4,18,1,1,761.88,nonwin2_3.png
12,4,19,2,1,722.66,nonwin2_9.png
12,4,20,2,1,571.44,nonwex2_4.png
12,4,21,2,1,508.19,nonwex2_2.png
12,4,22,2,1,468.98,nonwex10.png
12,4,23,1,1,637.79,nonwin2_10.png
12,4,24,1,1,566.57,nonwex12.png
12,5,1,2,1,792.68,nonwin11.png
12,5,2,2,1,529.51,nonwin3.png
12,5,3,2,1,474.29,nonwex10.png
12,5,4,2,1,643.02,nonwin2_9.png
12,5,5,2,1,531.85,nonwin2_3.png
12,5,6,2,1,732.64,nonwex5.png
12,5,7,2,1,565.42,nonwex2_3.png
12,5,8,1,1,630.2,nonwex2_10.png
12,5,9,1,1,526.99,nonwex7.png
12,5,10,2,1,591.72,nonwin5.png
12,5,11,1,1,584.52,nonwin2_6.png
12,5,12,1,1,561.28,nonwin10.png
12,5,13,2,1,530.07,nonwin9.png
12,5,14,2,1,506.89,nonwex2_4.png
12,5,15,1,1,507.67,nonwin2_5.png
12,5,16,1,1,548.45,nonwex12.png
12,5,17,1,1,741.19,nonwex9.png
12,5,18,1,1,589.97,nonwin2_12.png
12,5,19,2,1,566.74,nonwex2_12.png
12,5,20,1,1,794.25,nonwex1.png
12,5,21,2,1,555.03,nonwex2_2.png
12,5,22,1,1,659.8,nonwin2_10.png
12,5,23,1,1,500.6,nonwin4.png
12,5,24,1,1,629.35,nonwex2_1.png
12,6,1,0,0,0,nonwex10.png
12,6,2,2,1,603.05,nonwex2_4.png
12,6,3,1,1,627.85,nonwex2_1.png
12,6,4,2,1,524.62,nonwex2_2.png
12,6,5,2,1,517.41,nonwin5.png
12,6,6,1,1,542.19,nonwex2_10.png
12,6,7,1,1,598.95,nonwin2_10.png
12,6,8,2,1,743.72,nonwex5.png
12,6,9,1,1,592.51,nonwin10.png
12,6,10,1,1,553.32,nonwin4.png
12,6,11,1,1,514.07,nonwex7.png
12,6,12,1,1,426.87,nonwin2_6.png
12,6,13,2,1,523.66,nonwex2_3.png
12,6,14,2,1,532.39,nonwin3.png
12,6,15,2,1,557.22,nonwex9.png
12,6,16,1,1,741.97,nonwin2_5.png
12,6,17,2,1,582.72,nonwin9.png
12,6,18,2,1,431.53,nonwin2_3.png
12,6,19,2,1,592.32,nonwex2_12.png
12,6,20,1,1,665.13,nonwin2_12.png
12,6,21,1,1,753.88,nonwin2_9.png
12,6,22,1,1,538.68,nonwex12.png
12,6,23,2,1,619.47,nonwin11.png
12,6,24,1,1,764.23,nonwex1.png
12,7,1,2,1,822.38,nonwex2_12.png
12,7,2,2,1,823.12,nonwex5.png
12,7,3,2,1,559.93,nonwex2_3.png
12,7,4,1,1,544.72,nonwex12.png
12,7,5,2,1,585.49,nonwex2_2.png
12,7,6,2,1,578.29,nonwex9.png
12,7,7,1,1,491.07,nonwin10.png
12,7,8,2,1,539.79,nonwin3.png
12,7,9,1,1,508.63,nonwin2_12.png
12,7,10,2,1,573.37,nonwex2_4.png
12,7,11,1,1,670.2,nonwin2_3.png
12,7,12,1,1,606.94,nonwin2_10.png
12,7,13,1,1,567.7,nonwin4.png
12,7,14,2,1,488.54,nonwin11.png
12,7,15,2,1,929.29,nonwin2_5.png
12,7,16,1,1,682.1,nonwex2_1.png
12,7,17,1,1,738.87,nonwex2_10.png
12,7,18,2,1,563.61,nonwin9.png
12,7,19,2,1,564.45,nonwex10.png
12,7,20,1,1,645.22,nonwin2_6.png
12,7,21,1,1,685.99,nonwex1.png
12,7,22,2,1,606.79,nonwin5.png
12,7,23,1,1,647.57,nonwex7.png
12,7,24,2,1,648.36,nonwin2_9.png
12,8,1,2,1,619.17,nonwex2_2.png
12,8,2,1,1,555.9,nonwin2_12.png
12,8,3,1,1,524.71,nonwin10.png
12,8,4,1,1,589.5,nonwin2_10.png
12,8,5,1,1,678.28,nonwin4.png
12,8,6,2,1,631,nonwex2_4.png
12,8,7,2,1,415.82,nonwex10.png
12,8,8,1,1,632.62,nonwin2_9.png
12,8,9,2,1,769.41,nonwin5.png
12,8,10,1,1,562.19,nonwex12.png
12,8,11,1,1,642.97,nonwex1.png
12,8,12,1,1,555.75,nonwin2_6.png
12,8,13,1,1,772.53,nonwex2_12.png
12,8,14,1,1,709.31,nonwex2_1.png
12,8,15,1,1,534.04,nonwex7.png
12,8,16,1,1,758.88,nonwin2_3.png
12,8,17,1,1,615.65,nonwin2_5.png
12,8,18,2,1,568.42,nonwin9.png
12,8,19,1,1,545.18,nonwex2_10.png
12,8,20,1,1,825.96,nonwex5.png
12,8,21,2,1,554.78,nonwex2_3.png
12,8,22,2,1,491.56,nonwin11.png
12,8,23,2,1,484.28,nonwin3.png
12,8,24,1,1,757.13,nonwex9.png
13,1,1,1,1,1194.55,nonwin2_11.png
13,1,2,2,1,960.58,nonwin2_4.png
13,1,3,2,1,505.31,nonwin6.png
13,1,4,2,1,402.04,nonwex8.png
13,1,5,2,1,610.73,nonwex2.png
13,1,6,2,1,475.46,nonwin2_7.png
13,1,7,2,1,356.24,nonwex2_11.png
13,1,8,2,1,364.98,nonwex11.png
13,1,9,2,1,277.68,nonwex2_6.png
13,1,10,2,1,374.43,nonwex2_9.png
13,1,11,2,1,321.84,nonwex2_7.png
13,1,12,2,1,381.26,nonwin7.png
13,1,13,2,1,424.69,nonwex4.png
13,1,14,2,1,484.03,nonwin12.png
13,1,15,2,1,423.48,nonwex3.png
13,1,16,2,1,450.89,nonwin2.png
13,1,17,1,1,430.25,nonwex2_8.png
13,1,18,2,1,353.65,nonwex2_5.png
13,1,19,2,1,293.1,nonwin8.png
13,1,20,2,1,288.47,nonwin1.png
13,1,21,2,1,291.92,nonwin2_8.png
13,1,22,2,1,279.33,nonwin2_1.png
13,1,23,2,1,362.68,nonwin2_2.png
13,1,24,2,1,582.19,nonwex6.png
13,2,1,1,1,891.2,nonwin2_11.png
13,2,2,1,1,563.96,nonwex2_8.png
13,2,3,2,1,556.67,nonwin2.png
13,2,4,2,1,365.42,nonwin2_4.png
13,2,5,2,1,310.1,nonwin2_8.png
13,2,6,2,1,270.89,nonwin1.png
13,2,7,2,1,215.6,nonwex2_9.png
13,2,8,0,0,0,nonwin7.png
13,2,9,2,1,1065.15,nonwex2.png
13,2,10,2,1,1369.87,nonwex2_5.png
13,2,11,2,1,938.57,nonwin2_2.png
13,2,12,2,1,539.24,nonwin8.png
13,2,13,2,1,308.04,nonwin2_7.png
13,2,14,2,1,276.73,nonwex2_7.png
13,2,15,2,1,309.5,nonwex2_6.png
13,2,16,2,1,270.18,nonwin2_1.png
13,2,17,2,1,246.98,nonwex4.png
13,2,18,2,1,255.66,nonwex2_11.png
13,2,19,2,1,296.43,nonwex8.png
13,2,20,2,1,345.19,nonwex3.png
13,2,21,2,1,281.92,nonwex6.png
13,2,22,2,1,290.61,nonwin6.png
13,2,23,2,1,371.39,nonwin12.png
13,2,24,2,1,628.1,nonwex11.png
13,3,1,2,1,1012.13,nonwex6.png
13,3,2,2,1,876.85,nonwin12.png
13,3,3,2,1,677.57,nonwex8.png
13,3,4,2,1,558.3,nonwex11.png
13,3,5,2,1,518.98,nonwin2_1.png
13,3,6,2,1,551.74,nonwin2_2.png
13,3,7,2,1,368.45,nonwin2_8.png
13,3,8,2,1,489.19,nonwex2_5.png
13,3,9,2,1,529.97,nonwin7.png
13,3,10,2,1,626.72,nonwin2_11.png
13,3,11,2,1,523.45,nonwin8.png
13,3,12,2,1,508.13,nonwex2_11.png
13,3,13,2,1,644.88,nonwex2.png
13,3,14,2,1,637.66,nonwex4.png
13,3,15,2,1,358.38,nonwex3.png
13,3,16,2,1,743.14,nonwin1.png
13,3,17,2,1,447.85,nonwin2_7.png
13,3,18,2,1,656.57,nonwex2_9.png
13,3,19,2,1,713.35,nonwex2_7.png
13,3,20,2,1,690.04,nonwin2_4.png
13,3,21,2,1,602.76,nonwin2.png
13,3,22,1,1,699.55,nonwex2_8.png
13,3,23,2,1,500.28,nonwin6.png
13,3,24,2,1,317,nonwex2_6.png
13,4,1,2,1,591.02,nonwex2_11.png
13,4,2,2,1,527.74,nonwex11.png
13,4,3,2,1,344.51,nonwex2_9.png
13,4,4,2,1,329.24,nonwin1.png
13,4,5,2,1,602.02,nonwin2_7.png
13,4,6,2,1,314.72,nonwin2_4.png
13,4,7,2,1,331.42,nonwin8.png
13,4,8,2,1,476.18,nonwin6.png
13,4,9,2,1,588.95,nonwin2_8.png
13,4,10,2,1,525.67,nonwex2_5.png
13,4,11,2,1,582.41,nonwin2_11.png
13,4,12,2,1,535.13,nonwin2.png
13,4,13,2,1,463.84,nonwin12.png
13,4,14,1,1,544.58,nonwex2_8.png
13,4,15,2,1,457.36,nonwin2_1.png
13,4,16,2,1,418.06,nonwin2_2.png
13,4,17,2,1,210.82,nonwex2.png
13,4,18,2,1,291.56,nonwex4.png
13,4,19,2,1,260.28,nonwex3.png
13,4,20,2,1,301,nonwex2_6.png
13,4,21,2,1,309.72,nonwin7.png
13,4,22,2,1,398.49,nonwex8.png
13,4,23,2,1,391.2,nonwex2_7.png
13,4,24,2,1,383.96,nonwex6.png
13,5,1,2,1,553.98,nonwin2_8.png
13,5,2,2,1,514.77,nonwex2_7.png
13,5,3,2,1,587.52,nonwex2.png
13,5,4,2,1,460.21,nonwex6.png
13,5,5,2,1,516.98,nonwex2_9.png
13,5,6,2,1,533.72,nonwin2_7.png
13,5,7,2,1,470.45,nonwin2_1.png
13,5,8,2,1,575.14,nonwex2_11.png
13,5,9,2,1,535.89,nonwex2_5.png
13,5,10,2,1,480.61,nonwin8.png
13,5,11,2,1,497.39,nonwex3.png
13,5,12,2,1,586.12,nonwin7.png
13,5,13,1,1,666.88,nonwin2_11.png
13,5,14,2,1,491.54,nonwin2.png
13,5,15,1,1,684.35,nonwin1.png
13,5,16,2,1,773.06,nonwex2_6.png
13,5,17,2,1,493.81,nonwin2_2.png
13,5,18,1,1,606.56,nonwex2_8.png
13,5,19,2,1,551.28,nonwin12.png
13,5,20,2,1,567.98,nonwin6.png
13,5,21,0,0,0,nonwex11.png
13,5,22,2,1,529.43,nonwex8.png
13,5,23,2,1,522.18,nonwex4.png
13,5,24,2,1,514.96,nonwin2_4.png
13,6,1,2,1,888.31,nonwin2_1.png
13,6,2,2,1,697.05,nonwex2_6.png
13,6,3,2,1,689.79,nonwin2.png
13,6,4,1,1,810.49,nonwex2_8.png
13,6,5,2,1,683.22,nonwin6.png
13,6,6,2,1,523.94,nonwin2_7.png
13,6,7,2,1,532.73,nonwin2_4.png
13,6,8,2,1,597.46,nonwex2_5.png
13,6,9,2,1,726.21,nonwex2_11.png
13,6,10,2,1,582.94,nonwex3.png
13,6,11,2,1,511.64,nonwex2_7.png
13,6,12,2,1,360.36,nonwex2.png
13,6,13,2,1,449.14,nonwin12.png
13,6,14,2,1,481.84,nonwex11.png
13,6,15,2,1,578.58,nonwex6.png
13,6,16,0,0,0,nonwin7.png
13,6,17,0,0,0,nonwex8.png
13,6,18,2,1,524.82,nonwex2_9.png
13,6,19,2,1,349.49,nonwex4.png
13,6,20,0,0,0,nonwin1.png
13,6,21,2,1,311.01,nonwin2_2.png
13,6,22,1,1,591.72,nonwin2_11.png
13,6,23,2,1,560.5,nonwin2_8.png
13,6,24,2,1,321.22,nonwin8.png
13,7,1,2,1,776.54,nonwex6.png
13,7,2,2,1,465.25,nonwin2_8.png
13,7,3,2,1,321.99,nonwex2_7.png
13,7,4,2,1,450.69,nonwex11.png
13,7,5,2,1,315.45,nonwin6.png
13,7,6,2,1,340.21,nonwex2_9.png
13,7,7,1,1,884.92,nonwin2_11.png
13,7,8,2,1,589.64,nonwin2_7.png
13,7,9,2,1,414.4,nonwin2_2.png
13,7,10,2,1,559.17,nonwin8.png
13,7,11,2,1,519.9,nonwex4.png
13,7,12,2,1,728.65,nonwin2.png
13,7,13,2,1,641.37,nonwex2.png
13,7,14,2,1,794.12,nonwin7.png
13,7,15,1,1,978.87,nonwex2_8.png
13,7,16,2,1,659.56,nonwin12.png
13,7,17,2,1,564.3,nonwex3.png
13,7,18,2,1,629.04,nonwex2_5.png
13,7,19,2,1,501.78,nonwex2_11.png
13,7,20,2,1,502.5,nonwin2_1.png
13,7,21,2,1,735.27,nonwin2_4.png
13,7,22,1,1,759.94,nonwin1.png
13,7,23,2,1,480.7,nonwex2_6.png
13,7,24,2,1,385.45,nonwex8.png
13,8,1,2,1,799.86,nonwex2_9.png
13,8,2,2,1,648.62,nonwin2.png
13,8,3,2,1,425.35,nonwin2_8.png
13,8,4,1,1,618.08,nonwex2_8.png
13,8,5,2,1,554.78,nonwex2_5.png
13,8,6,2,1,555.54,nonwex2_7.png
13,8,7,0,0,0,nonwex11.png
13,8,8,2,1,285.04,nonwin2_4.png
13,8,9,2,1,277.71,nonwin2_2.png
13,8,10,2,1,582.5,nonwin2_11.png
13,8,11,0,0,0,nonwex8.png
13,8,12,2,1,359.91,nonwin2_7.png
13,8,13,2,1,528.69,nonwex2.png
13,8,14,2,1,361.39,nonwin2_1.png
13,8,15,2,1,378.1,nonwin7.png
13,8,16,2,1,434.93,nonwex6.png
13,8,17,1,1,571.63,nonwin1.png
13,8,18,2,1,452.4,nonwin6.png
13,8,19,2,1,285.07,nonwin8.png
13,8,20,2,1,293.83,nonwex4.png
13,8,21,2,1,310.55,nonwex3.png
13,8,22,0,0,0,nonwex2_6.png
13,8,23,2,1,344.03,nonwex2_11.png
13,8,24,0,0,0,nonwin12.png