SID,Familiarity,RepTime,Trial,Resp,Corr,RT,ImgName
1,1,1,1,2,1,880.96,wordin2_11.png
1,1,1,2,1,1,868.35,wordex2_9.png
1,1,1,3,1,1,620.83,wordex2_1.png
1,1,1,4,2,1,669.82,wordin2_1.png
1,1,1,5,2,1,1006.57,wordex10.png
1,1,1,6,1,1,551.29,wordex6.png
1,1,1,7,1,1,872.02,wordin2_5.png
1,1,1,8,1,1,896.77,wordin7.png
1,1,1,9,1,1,801.46,wordin2_8.png
1,1,1,10,2,1,706.22,wordin9.png
1,1,1,11,2,1,858.91,wordin11.png
1,1,1,12,1,1,723.69,wordin2.png
1,1,1,13,1,1,732.41,wordex2_8.png
1,1,1,14,1,1,773.16,wordex3.png
1,1,1,15,1,1,605.84,wordex2_4.png
1,1,1,16,2,1,798.63,wordex2_5.png
1,1,1,17,2,1,1007.37,wordin2_12.png
1,1,1,18,1,1,760.03,wordex2_3.png
1,1,1,19,1,1,688.82,wordin2_10.png
1,1,1,20,1,1,505.51,wordex5.png
1,1,1,21,1,1,578.28,wordin2_9.png
1,1,1,22,1,1,691.02,wordin2_4.png
1,1,1,23,2,1,787.68,wordex8.png
1,1,1,24,1,1,788.46,wordin10.png
1,1,2,1,2,1,731.88,wordin2_12.png
1,1,2,2,1,1,716.63,wordin2.png
1,1,2,3,2,1,877.38,wordin2_5.png
1,1,2,4,1,1,614.08,wordin2_9.png
1,1,2,5,1,1,622.82,wordex6.png
1,1,2,6,1,1,583.58,wordex2_8.png
1,1,2,7,1,1,728.31,wordex3.png
1,1,2,8,1,1,585,wordin7.png
1,1,2,9,2,1,713.74,wordex2_5.png
1,1,2,10,1,1,538.48,wordex5.png
1,1,2,11,2,1,683.24,wordin2_1.png
1,1,2,12,1,1,643.91,wordin2_10.png
1,1,2,13,1,1,692.64,wordex2_3.png
1,1,2,14,2,1,669.43,wordex8.png
1,1,2,15,2,1,870.12,wordin9.png
1,1,2,16,2,1,1118.92,wordin2_11.png
1,1,2,17,1,1,551.62,wordin10.png
1,1,2,18,1,1,576.35,wordex2_9.png
1,1,2,19,1,1,841.07,wordex10.png
1,1,2,20,2,1,657.81,wordin11.png
1,1,2,21,1,1,546.48,wordex2_1.png
1,1,2,22,1,1,523.27,wordex2_4.png
1,1,2,23,1,1,484,wordin2_8.png
1,1,2,24,1,1,564.74,wordin2_4.png
1,1,3,1,2,1,588.12,wordin2_1.png
1,1,3,2,1,1,484.86,wordex2_8.png
1,1,3,3,1,1,477.65,wordex3.png
1,1,3,4,1,1,422.35,wordex10.png
1,1,3,5,1,1,471.05,wordin2.png
1,1,3,6,1,1,447.84,wordex5.png
1,1,3,7,1,1,368.56,wordex2_4.png
1,1,3,8,1,1,481.29,wordin2_9.png
1,1,3,9,2,1,633.95,wordin9.png
1,1,3,10,1,1,514.76,wordex2_3.png
1,1,3,11,1,1,315.48,wordex2_9.png
1,1,3,12,1,1,428.18,wordin2_4.png
1,1,3,13,2,1,580.95,wordex2_5.png
1,1,3,14,2,1,525.68,wordin2_5.png
1,1,3,15,2,1,574.41,wordex8.png
1,1,3,16,1,1,519.12,wordex2_1.png
1,1,3,17,1,1,383.84,wordin11.png
1,1,3,18,1,1,552.6,wordin7.png
1,1,3,19,2,1,609.31,wordin2_12.png
1,1,3,20,1,1,594.02,wordin2_10.png
1,1,3,21,1,1,530.77,wordex6.png
1,1,3,22,2,1,763.48,wordin2_11.png
1,1,3,23,1,1,572.22,wordin10.png
1,1,3,24,1,1,540.98,wordin2_8.png
1,1,4,1,1,1,764.35,wordex2_9.png
1,1,4,2,1,1,533.02,wordin10.png
1,1,4,3,2,1,669.79,wordin2_5.png
1,1,4,4,1,1,470.52,wordex2_4.png
1,1,4,5,1,1,503.27,wordex2_1.png
1,1,4,6,1,1,503.91,wordex6.png
1,1,4,7,1,1,336.68,wordex10.png
1,1,4,8,1,1,489.43,wordin2.png
1,1,4,9,1,1,618.12,wordin2_9.png
1,1,4,10,1,1,562.92,wordin2_10.png
1,1,4,11,1,1,547.59,wordex2_8.png
1,1,4,12,2,1,532.38,wordin2_12.png
1,1,4,13,1,1,525.11,wordin2_4.png
1,1,4,14,2,1,661.78,wordin11.png
1,1,4,15,1,1,494.57,wordex5.png
1,1,4,16,2,1,711.26,wordin2_11.png
1,1,4,17,1,1,488.03,wordin2_8.png
1,1,4,18,2,1,584.76,wordex8.png
1,1,4,19,2,1,593.48,wordin2_1.png
1,1,4,20,2,1,578.22,wordex2_5.png
1,1,4,21,1,1,594.95,wordex2_3.png
1,1,4,22,1,1,595.63,wordex3.png
1,1,4,23,2,1,572.36,wordin9.png
1,1,4,24,1,1,557.13,wordin7.png
1,1,5,1,1,1,773.13,wordin2_8.png
1,1,5,2,2,1,565.83,wordin11.png
1,1,5,3,1,1,550.51,wordex10.png
1,1,5,4,2,1,551.3,wordex2_5.png
1,1,5,5,2,1,583.98,wordex8.png
1,1,5,6,1,1,488.71,wordin2_10.png
1,1,5,7,1,1,433.47,wordex2_4.png
1,1,5,8,1,1,474.22,wordin2_9.png
1,1,5,9,1,1,554.94,wordex2_8.png
1,1,5,10,1,1,467.65,wordin10.png
1,1,5,11,1,1,420.41,wordex5.png
1,1,5,12,2,1,517.1,wordin9.png
1,1,5,13,1,1,517.87,wordin2.png
1,1,5,14,2,1,614.6,wordin2_11.png
1,1,5,15,1,1,527.33,wordin2_4.png
1,1,5,16,1,1,439.94,wordex3.png
1,1,5,17,1,1,736.8,wordex2_1.png
1,1,5,18,1,1,481.51,wordin7.png
1,1,5,19,2,1,498.2,wordin2_12.png
1,1,5,20,2,1,538.97,wordin2_1.png
1,1,5,21,1,1,515.69,wordex6.png
1,1,5,22,1,1,500.44,wordex2_9.png
1,1,5,23,1,1,509.13,wordex2_3.png
1,1,5,24,2,1,541.89,wordin2_5.png
1,1,6,1,1,1,477.14,wordin10.png
1,1,6,2,1,1,421.88,wordex2_1.png
1,1,6,3,1,1,502.59,wordex2_8.png
1,1,6,4,1,1,519.38,wordin2_10.png
1,1,6,5,1,1,536.12,wordin2_8.png
1,1,6,6,1,1,544.85,wordex6.png
1,1,6,7,2,1,537.53,wordin9.png
1,1,6,8,2,1,514.3,wordin2_1.png
1,1,6,9,1,1,491.02,wordex3.png
1,1,6,10,1,1,475.71,wordex2_9.png
1,1,6,11,1,1,460.45,wordex2_4.png
1,1,6,12,1,1,533.21,wordin7.png
1,1,6,13,2,1,549.96,wordin2_11.png
1,1,6,14,1,1,774.67,wordex8.png
1,1,6,15,1,1,455.36,wordin11.png
1,1,6,16,0,0,0,wordin2_9.png
1,1,6,17,2,1,528.85,wordin2_5.png
1,1,6,18,1,1,465.55,wordin2.png
1,1,6,19,1,1,434.34,wordin2_4.png
1,1,6,20,1,1,515.07,wordex5.png
1,1,6,21,1,1,443.79,wordex10.png
1,1,6,22,1,1,500.53,wordex2_3.png
1,1,6,23,2,1,637.24,wordex2_5.png
1,1,6,24,2,1,613.99,wordin2_12.png
1,1,7,1,1,1,394.22,wordex5.png
1,1,7,2,1,1,403.03,wordin7.png
1,1,7,3,1,1,483.73,wordin2_4.png
1,1,7,4,2,1,532.47,wordin2_1.png
1,1,7,5,1,1,525.21,wordex3.png
1,1,7,6,1,1,485.95,wordin2_8.png
1,1,7,7,2,1,542.64,wordex8.png
1,1,7,8,2,1,455.4,wordin2_5.png
1,1,7,9,1,1,624.11,wordex10.png
1,1,7,10,2,1,576.85,wordin2_11.png
1,1,7,11,1,1,521.59,wordin2_10.png
1,1,7,12,2,1,538.34,wordin9.png
1,1,7,13,1,1,795.02,wordin2_9.png
1,1,7,14,1,1,467.76,wordin10.png
1,1,7,15,1,1,548.5,wordex2_9.png
1,1,7,16,2,1,629.26,wordin2_12.png
1,1,7,17,1,1,621.99,wordin2.png
1,1,7,18,1,1,814.72,wordin11.png
1,1,7,19,1,1,527.43,wordex2_1.png
1,1,7,20,1,1,456.17,wordex2_3.png
1,1,7,21,1,1,520.9,wordex2_8.png
1,1,7,22,2,1,529.64,wordex2_5.png
1,1,7,23,1,1,826.38,wordex6.png
1,1,7,24,1,1,891.09,wordex2_4.png
1,1,8,1,1,1,748.86,wordin2_10.png
1,1,8,2,0,0,0,wordin2_4.png
1,1,8,3,1,1,510.35,wordex6.png
1,1,8,4,1,1,527.03,wordex2_9.png
1,1,8,5,1,1,455.82,wordex2_1.png
1,1,8,6,1,1,520.54,wordex2_8.png
1,1,8,7,1,1,513.25,wordex2_4.png
1,1,8,8,2,1,490,wordin2_12.png
1,1,8,9,1,1,538.74,wordin10.png
1,1,8,10,1,1,515.46,wordin7.png
1,1,8,11,1,1,644.17,wordin11.png
1,1,8,12,2,1,540.92,wordin9.png
1,1,8,13,2,1,373.65,wordex2_3.png
1,1,8,14,2,1,542.39,wordin2_11.png
1,1,8,15,1,1,527.12,wordex10.png
1,1,8,16,2,1,543.85,wordin2_5.png
1,1,8,17,2,1,552.58,wordin2_1.png
1,1,8,18,1,1,769.27,wordin2_9.png
1,1,8,19,1,1,538.04,wordex3.png
1,1,8,20,1,1,674.72,wordin2_8.png
1,1,8,21,2,1,587.5,wordex2_5.png
1,1,8,22,1,1,492.21,wordex5.png
1,1,8,23,1,1,508.96,wordin2.png
1,1,8,24,2,1,565.65,wordex8.png
2,1,1,1,1,1,555.84,wordex1.png
2,1,1,2,1,1,351.17,wordin2_7.png
2,1,1,3,1,1,578.66,wordin5.png
2,1,1,4,2,1,470.03,wordin2_2.png
2,1,1,5,1,1,505.41,wordex2_10.png
2,1,1,6,1,1,492.86,wordex11.png
2,1,1,7,2,1,552.2,wordex9.png
2,1,1,8,1,1,571.64,wordin2_3.png
2,1,1,9,2,1,471,wordex2.png
2,1,1,10,1,1,599.6,wordin1.png
2,1,1,11,1,1,560.51,wordex7.png
2,1,1,12,2,1,617.22,wordin2_6.png
2,1,1,13,1,1,657.94,wordin6.png
2,1,1,14,2,1,562.7,wordex12.png
2,1,1,15,1,1,539.4,wordin4.png
2,1,1,16,2,1,524.16,wordex2_12.png
2,1,1,17,1,1,556.9,wordex2_2.png
2,1,1,18,2,1,357.62,wordex4.png
2,1,1,19,1,1,494.34,wordex2_6.png
2,1,1,20,2,1,447.08,wordin3.png
2,1,1,21,2,1,455.82,wordin8.png
2,1,1,22,1,1,488.5,wordin12.png
2,1,1,23,2,1,553.24,wordex2_11.png
2,1,1,24,2,1,586.01,wordex2_7.png
2,1,2,1,2,1,931.7,wordex7.png
2,1,2,2,1,1,676.46,wordex2_7.png
2,1,2,3,2,1,533.14,wordex2_11.png
2,1,2,4,2,1,397.91,wordex9.png
2,1,2,5,1,1,726.64,wordex2_2.png
2,1,2,6,2,1,447.32,wordin2_2.png
2,1,2,7,1,1,488.09,wordin2_3.png
2,1,2,8,1,1,528.84,wordin1.png
2,1,2,9,2,1,529.5,wordex12.png
2,1,2,10,1,1,474.29,wordin2_6.png
2,1,2,11,1,1,571.04,wordex11.png
2,1,2,12,2,1,547.77,wordin4.png
2,1,2,13,2,1,628.49,wordin8.png
2,1,2,14,2,1,709.16,wordex2_10.png
2,1,2,15,2,1,677.97,wordin12.png
2,1,2,16,1,1,558.69,wordin6.png
2,1,2,17,2,1,455.41,wordex4.png
2,1,2,18,1,1,544.13,wordin5.png
2,1,2,19,2,1,560.82,wordex1.png
2,1,2,20,2,1,505.61,wordex2_12.png
2,1,2,21,2,1,522.34,wordin3.png
2,1,2,22,1,1,499.07,wordex2_6.png
2,1,2,23,2,1,411.8,wordex2.png
2,1,2,24,2,1,692.55,wordin2_7.png
2,1,3,1,2,1,675.96,wordex2_10.png
2,1,3,2,2,1,564.66,wordex9.png
2,1,3,3,2,1,573.45,wordin3.png
2,1,3,4,2,1,558.18,wordex2.png
2,1,3,5,1,1,414.85,wordex1.png
2,1,3,6,2,1,471.61,wordex4.png
2,1,3,7,1,1,504.38,wordex11.png
2,1,3,8,1,1,1001.13,wordex2_2.png
2,1,3,9,1,1,481.83,wordin6.png
2,1,3,10,1,1,490.55,wordin4.png
2,1,3,11,2,1,475.3,wordin2_7.png
2,1,3,12,2,1,628.04,wordin5.png
2,1,3,13,2,1,580.77,wordex2_6.png
2,1,3,14,1,1,565.45,wordex2_12.png
2,1,3,15,1,1,558.23,wordin2_3.png
2,1,3,16,2,1,574.91,wordex2_11.png
2,1,3,17,1,1,487.69,wordin1.png
2,1,3,18,2,1,504.42,wordex7.png
2,1,3,19,2,1,537.1,wordin2_2.png
2,1,3,20,2,1,641.85,wordin12.png
2,1,3,21,1,1,482.62,wordex2_7.png
2,1,3,22,1,1,603.36,wordin2_6.png
2,1,3,23,2,1,508.07,wordex12.png
2,1,3,24,1,1,540.82,wordin8.png
2,1,4,1,2,1,647.34,wordex2_11.png
2,1,4,2,1,1,528,wordin2_6.png
2,1,4,3,2,1,440.77,wordex7.png
2,1,4,4,2,1,585.5,wordin3.png
2,1,4,5,1,1,642.26,wordex2_7.png
2,1,4,6,1,1,459,wordex1.png
2,1,4,7,1,1,475.7,wordex2_6.png
2,1,4,8,2,1,468.48,wordin2_7.png
2,1,4,9,1,1,445.17,wordex2_2.png
2,1,4,10,2,1,461.92,wordex2.png
2,1,4,11,2,1,718.7,wordin6.png
2,1,4,12,2,1,639.4,wordex2_12.png
2,1,4,13,2,1,712.15,wordex4.png
2,1,4,14,2,1,760.83,wordin8.png
2,1,4,15,1,1,481.63,wordin1.png
2,1,4,16,1,1,530.33,wordin2_3.png
2,1,4,17,2,1,627.06,wordin2_2.png
2,1,4,18,2,1,691.83,wordex9.png
2,1,4,19,1,1,748.55,wordin4.png
2,1,4,20,2,1,637.33,wordin5.png
2,1,4,21,2,1,630.06,wordex12.png
2,1,4,22,2,1,518.8,wordin12.png
2,1,4,23,1,1,551.48,wordex11.png
2,1,4,24,1,1,568.24,wordex2_10.png
2,1,5,1,2,1,601.88,wordin2_7.png
2,1,5,2,1,1,530.65,wordex2_7.png
2,1,5,3,1,1,507.36,wordin1.png
2,1,5,4,1,1,532.06,wordin4.png
2,1,5,5,1,1,780.87,wordex12.png
2,1,5,6,2,1,461.59,wordin2_3.png
2,1,5,7,1,1,582.34,wordin2_6.png
2,1,5,8,2,1,511.07,wordex2.png
2,1,5,9,2,1,503.81,wordex2_12.png
2,1,5,10,2,1,624.51,wordex2_6.png
2,1,5,11,1,1,561.25,wordex2_11.png
2,1,5,12,1,1,514.01,wordex11.png
2,1,5,13,0,0,0,wordex4.png
2,1,5,14,1,1,443.48,wordex1.png
2,1,5,15,2,1,524.17,wordin12.png
2,1,5,16,1,1,748.94,wordex2_2.png
2,1,5,17,2,1,709.65,wordin6.png
2,1,5,18,2,1,582.45,wordex7.png
2,1,5,19,1,1,591.18,wordin8.png
2,1,5,20,2,1,479.87,wordex9.png
2,1,5,21,2,1,512.62,wordin3.png
2,1,5,22,2,1,417.36,wordin2_2.png
2,1,5,23,2,1,570.08,wordin5.png
2,1,5,24,1,1,546.84,wordex2_10.png
2,1,6,1,2,1,738.32,wordex2_10.png
2,1,6,2,1,1,579.08,wordin4.png
2,1,6,3,1,1,691.83,wordex1.png
2,1,6,4,1,1,644.57,wordex11.png
2,1,6,5,2,1,605.24,wordex7.png
2,1,6,6,1,1,517.98,wordex2_2.png
2,1,6,7,2,1,630.75,wordin12.png
2,1,6,8,2,1,551.51,wordin3.png
2,1,6,9,1,1,536.22,wordin2_3.png
2,1,6,10,1,1,616.98,wordex2.png
2,1,6,11,2,1,489.67,wordin2_2.png
2,1,6,12,1,1,538.46,wordin2_6.png
2,1,6,13,2,1,571.19,wordex12.png
2,1,6,14,2,1,515.93,wordin2_7.png
2,1,6,15,1,1,468.62,wordex2_7.png
2,1,6,16,2,1,557.39,wordex2_6.png
2,1,6,17,2,1,502.08,wordex9.png
2,1,6,18,1,1,518.85,wordin1.png
2,1,6,19,2,1,487.56,wordin5.png
2,1,6,20,2,1,664.33,wordin8.png
2,1,6,21,2,1,529.09,wordex2_12.png
2,1,6,22,1,1,745.82,wordex2_11.png
2,1,6,23,2,1,650.53,wordex4.png
2,1,6,24,2,1,611.27,wordin6.png
2,1,7,1,2,1,1012.11,wordin8.png
2,1,7,2,1,1,492.9,wordin1.png
2,1,7,3,1,1,477.65,wordex2_7.png
2,1,7,4,2,1,526.39,wordex12.png
2,1,7,5,2,1,551.07,wordex2_6.png
2,1,7,6,1,1,559.84,wordex11.png
2,1,7,7,2,1,544.52,wordex2_10.png
2,1,7,8,2,1,721.28,wordin2_3.png
2,1,7,9,2,1,458.05,wordex2_12.png
2,1,7,10,2,1,642.78,wordin2_7.png
2,1,7,11,2,1,587.5,wordex4.png
2,1,7,12,2,1,508.24,wordin5.png
2,1,7,13,2,1,477,wordin3.png
2,1,7,14,2,1,533.69,wordex9.png
2,1,7,15,1,1,454.49,wordin2_6.png
2,1,7,16,2,1,439.21,wordex2.png
2,1,7,17,1,1,447.91,wordex1.png
2,1,7,18,1,1,552.67,wordex2_11.png
2,1,7,19,2,1,465.43,wordex7.png
2,1,7,20,2,1,530.17,wordin12.png
2,1,7,21,2,1,402.9,wordin2_2.png
2,1,7,22,2,1,475.64,wordin4.png
2,1,7,23,2,1,516.38,wordin6.png
2,1,7,24,1,1,469.11,wordex2_2.png
2,1,8,1,2,1,753.69,wordin2_7.png
2,1,8,2,1,1,634.45,wordin2_3.png
2,1,8,3,2,1,675.15,wordex7.png
2,1,8,4,1,1,443.87,wordex1.png
2,1,8,5,1,1,652.64,wordin1.png
2,1,8,6,1,1,533.36,wordex2_7.png
2,1,8,7,2,1,470.11,wordin3.png
2,1,8,8,1,1,550.8,wordin12.png
2,1,8,9,1,1,527.53,wordex11.png
2,1,8,10,2,1,496.32,wordex12.png
2,1,8,11,2,1,457.01,wordin5.png
2,1,8,12,1,1,633.77,wordin4.png
2,1,8,13,2,1,866.53,wordex2_10.png
2,1,8,14,2,1,499.21,wordex2.png
2,1,8,15,2,1,523.95,wordex2_6.png
2,1,8,16,2,1,412.71,wordin8.png
2,1,8,17,2,1,477.46,wordex9.png
2,1,8,18,2,1,390.2,wordex4.png
2,1,8,19,2,1,390.91,wordex2_11.png
2,1,8,20,2,1,407.65,wordin6.png
2,1,8,21,2,1,408.41,wordex2_12.png
2,1,8,22,2,1,457.15,wordin2_2.png
2,1,8,23,1,1,457.88,wordex2_2.png
2,1,8,24,1,1,474.6,wordin2_6.png
3,1,1,1,1,1,704.92,wordex8.png
3,1,1,2,2,1,708.33,wordin2.png
3,1,1,3,1,1,959.79,wordex3.png
3,1,1,4,2,1,979.17,wordin2_11.png
3,1,1,5,2,1,1054.52,wordin2_1.png
3,1,1,6,2,1,977.94,wordex10.png
3,1,1,7,1,1,981.34,wordex2_1.png
3,1,1,8,2,1,1136.75,wordin2_4.png
3,1,1,9,2,1,844.17,wordex2_3.png
3,1,1,10,2,1,740.72,wordex6.png
3,1,1,11,2,1,669.59,wordin2_12.png
3,1,1,12,2,1,1078.34,wordin2_8.png
3,1,1,13,1,1,455.06,wordex2_8.png
3,1,1,14,2,1,615.83,wordex2_9.png
3,1,1,15,2,1,624.56,wordex5.png
3,1,1,16,2,1,809.26,wordex2_5.png
3,1,1,17,0,0,0,wordin9.png
3,1,1,18,1,1,682.74,wordex2_4.png
3,1,1,19,2,1,603.48,wordin10.png
3,1,1,20,2,1,516.21,wordin7.png
3,1,1,21,1,1,564.9,wordin2_10.png
3,1,1,22,2,1,597.65,wordin2_9.png
3,1,1,23,2,1,510.35,wordin11.png
3,1,1,24,2,1,591.14,wordin2_5.png
3,1,2,1,2,1,644.09,wordin9.png
3,1,2,2,0,0,0,wordex2_3.png
3,1,2,3,1,1,613.55,wordex2_1.png
3,1,2,4,1,1,702.26,wordex8.png
3,1,2,5,2,1,662.98,wordin2_1.png
3,1,2,6,2,1,695.74,wordin11.png
3,1,2,7,2,1,584.41,wordex5.png
3,1,2,8,1,1,673.2,wordin2.png
3,1,2,9,0,0,0,wordin2_4.png
3,1,2,10,2,1,514.66,wordin2_5.png
3,1,2,11,1,1,595.39,wordex2_8.png
3,1,2,12,2,1,612.12,wordex10.png
3,1,2,13,1,1,500.85,wordin2_10.png
3,1,2,14,2,1,549.58,wordin2_9.png
3,1,2,15,2,1,758.27,wordin2_8.png
3,1,2,16,2,1,551.04,wordin7.png
3,1,2,17,2,1,495.76,wordin2_12.png
3,1,2,18,2,1,496.45,wordin2_11.png
3,1,2,19,1,1,585.24,wordex2_4.png
3,1,2,20,1,1,593.95,wordex6.png
3,1,2,21,1,1,634.65,wordex3.png
3,1,2,22,0,0,0,wordex2_9.png
3,1,2,23,2,1,508.15,wordin10.png
3,1,2,24,2,1,508.89,wordex2_5.png
3,1,3,1,2,1,819.96,wordin2_8.png
3,1,3,2,2,1,492.66,wordin2_1.png
3,1,3,3,2,1,733.4,wordin11.png
3,1,3,4,1,1,574.12,wordex2_3.png
3,1,3,5,2,1,534.86,wordex2_5.png
3,1,3,6,1,1,567.61,wordin2_10.png
3,1,3,7,2,1,584.3,wordex5.png
3,1,3,8,0,0,0,wordin2_5.png
3,1,3,9,1,1,505.77,wordex3.png
3,1,3,10,0,0,0,wordin2.png
3,1,3,11,2,1,491.26,wordin2_11.png
3,1,3,12,2,1,459.99,wordin2_12.png
3,1,3,13,2,1,484.67,wordin7.png
3,1,3,14,2,1,517.44,wordin10.png
3,1,3,15,2,1,558.19,wordin2_4.png
3,1,3,16,0,0,0,wordex2_1.png
3,1,3,17,2,1,887.61,wordex10.png
3,1,3,18,1,1,1120.36,wordex6.png
3,1,3,19,1,1,569.05,wordex2_4.png
3,1,3,20,0,0,0,wordex2_8.png
3,1,3,21,0,0,0,wordex8.png
3,1,3,22,2,1,523.26,wordin2_9.png
3,1,3,23,0,0,0,wordin9.png
3,1,3,24,0,0,0,wordex2_9.png
3,1,4,1,2,1,480.01,wordin2_12.png
3,1,4,2,1,1,568.77,wordex6.png
3,1,4,3,2,1,513.51,wordex2_5.png
3,1,4,4,1,1,602.25,wordex2_3.png
3,1,4,5,1,1,602.98,wordex2_9.png
3,1,4,6,2,1,867.72,wordin2_9.png
3,1,4,7,2,1,599.12,wordin10.png
3,1,4,8,2,1,471.84,wordin2_11.png
3,1,4,9,2,1,400.57,wordex3.png
3,1,4,10,1,1,433.27,wordex2_1.png
3,1,4,11,1,1,457.97,wordex2_8.png
3,1,4,12,1,1,482.72,wordin2_10.png
3,1,4,13,2,1,675.5,wordin2_4.png
3,1,4,14,2,1,436.17,wordin2_5.png
3,1,4,15,2,1,628.9,wordex10.png
3,1,4,16,2,1,597.67,wordin2_1.png
3,1,4,17,2,1,614.4,wordin2_8.png
3,1,4,18,0,0,0,wordin9.png
3,1,4,19,1,1,431.83,wordex2_4.png
3,1,4,20,2,1,544.55,wordin11.png
3,1,4,21,1,1,569.31,wordin2.png
3,1,4,22,2,1,594.08,wordex5.png
3,1,4,23,1,1,826.81,wordex8.png
3,1,4,24,2,1,531.54,wordin7.png
3,1,5,1,2,1,487.77,wordin2_12.png
3,1,5,2,1,1,544.48,wordin2.png
3,1,5,3,2,1,473.23,wordin9.png
3,1,5,4,2,1,521.97,wordex2_5.png
3,1,5,5,1,1,450.69,wordex2_8.png
3,1,5,6,1,1,491.39,wordex6.png
3,1,5,7,1,1,428.12,wordex3.png
3,1,5,8,1,1,524.84,wordex2_3.png
3,1,5,9,2,1,493.57,wordex10.png
3,1,5,10,2,1,462.35,wordin10.png
3,1,5,11,2,1,479.08,wordin2_9.png
3,1,5,12,0,0,0,wordin2_4.png
3,1,5,13,2,1,408.54,wordin2_5.png
3,1,5,14,1,1,513.22,wordex2_4.png
3,1,5,15,2,1,665.99,wordin2_8.png
3,1,5,16,0,0,0,wordex2_1.png
3,1,5,17,2,1,491.45,wordin2_11.png
3,1,5,18,1,1,484.17,wordin2_10.png
3,1,5,19,1,1,476.93,wordex2_9.png
3,1,5,20,2,1,557.61,wordex5.png
3,1,5,21,2,1,534.38,wordin2_1.png
3,1,5,22,2,1,503.09,wordin7.png
3,1,5,23,2,1,919.87,wordin11.png
3,1,5,24,1,1,488.58,wordex8.png
3,1,6,1,2,1,528.82,wordin7.png
3,1,6,2,2,1,505.52,wordin9.png
3,1,6,3,2,1,522.22,wordex2_5.png
3,1,6,4,2,1,411,wordex5.png
3,1,6,5,1,1,459.7,wordex2_8.png
3,1,6,6,2,1,604.47,wordin2_4.png
3,1,6,7,1,1,525.19,wordex2_9.png
3,1,6,8,2,1,437.87,wordin2_11.png
3,1,6,9,1,1,574.67,wordex2_3.png
3,1,6,10,2,1,495.39,wordin2_12.png
3,1,6,11,1,1,528.12,wordex8.png
3,1,6,12,1,1,608.8,wordex2_1.png
3,1,6,13,2,1,617.53,wordex10.png
3,1,6,14,2,1,522.28,wordin11.png
3,1,6,15,1,1,539.04,wordex6.png
3,1,6,16,1,1,539.75,wordin2.png
3,1,6,17,1,1,524.5,wordex3.png
3,1,6,18,2,1,549.24,wordin2_9.png
3,1,6,19,0,0,0,wordin2_8.png
3,1,6,20,1,1,486.65,wordin2_10.png
3,1,6,21,2,1,535.38,wordin10.png
3,1,6,22,1,1,672.11,wordex2_4.png
3,1,6,23,2,1,624.85,wordin2_5.png
3,1,6,24,2,1,521.59,wordin2_1.png
3,1,7,1,2,1,473.09,wordin10.png
3,1,7,2,1,1,489.81,wordin2_10.png
3,1,7,3,1,1,530.51,wordex2_4.png
3,1,7,4,2,1,547.22,wordex10.png
3,1,7,5,1,1,564.01,wordex8.png
3,1,7,6,2,1,548.75,wordex5.png
3,1,7,7,2,1,533.44,wordin9.png
3,1,7,8,1,1,558.21,wordin2.png
3,1,7,9,2,1,446.88,wordin2_12.png
3,1,7,10,2,1,927.68,wordin2_1.png
3,1,7,11,1,1,512.34,wordex2_1.png
3,1,7,12,2,1,553.13,wordin2_4.png
3,1,7,13,1,1,521.84,wordex2_9.png
3,1,7,14,2,1,706.58,wordin2_8.png
3,1,7,15,1,1,611.32,wordex3.png
3,1,7,16,2,1,476,wordin2_5.png
3,1,7,17,1,1,532.53,wordex6.png
3,1,7,18,2,1,525.51,wordin11.png
3,1,7,19,2,1,518.19,wordin2_9.png
3,1,7,20,1,1,598.92,wordex2_3.png
3,1,7,21,1,1,575.71,wordex2_8.png
3,1,7,22,2,1,552.42,wordin7.png
3,1,7,23,2,1,457.13,wordex2_5.png
3,1,7,24,2,1,473.89,wordin2_11.png
3,1,8,1,2,1,499.52,wordin2_1.png
3,1,8,2,1,1,620.28,wordex2_3.png
3,1,8,3,0,0,0,wordex6.png
3,1,8,4,2,1,453.67,wordin2_9.png
3,1,8,5,2,1,454.47,wordin10.png
3,1,8,6,2,1,455.19,wordex5.png
3,1,8,7,2,1,399.87,wordin11.png
3,1,8,8,1,1,568.6,wordin2.png
3,1,8,9,2,1,481.39,wordex2_5.png
3,1,8,10,2,1,426.12,wordex2_9.png
3,1,8,11,2,1,570.81,wordin7.png
3,1,8,12,1,1,707.59,wordex2_4.png
3,1,8,13,2,1,484.26,wordin2_12.png
3,1,8,14,0,0,0,wordin2_4.png
3,1,8,15,2,1,581.75,wordin2_8.png
3,1,8,16,0,0,0,wordex10.png
3,1,8,17,2,1,431.21,wordin2_5.png
3,1,8,18,2,1,455.97,wordin2_11.png
3,1,8,19,1,1,504.7,wordin2_10.png
3,1,8,20,1,1,529.42,wordex2_1.png
3,1,8,21,1,1,506.15,wordex3.png
3,1,8,22,0,0,0,wordex2_8.png
3,1,8,23,1,1,531.58,wordex8.png
3,1,8,24,2,1,532.35,wordin9.png
4,1,1,1,1,1,955.87,wordin1.png
4,1,1,2,1,1,1103.34,wordex1.png
4,1,1,3,2,1,778.74,wordex12.png
4,1,1,4,1,1,662.04,wordex11.png
4,1,1,5,1,1,497.51,wordex2_10.png
4,1,1,6,2,1,724.85,wordex9.png
4,1,1,7,2,1,864.3,wordin2_6.png
4,1,1,8,2,1,859.71,wordex2.png
4,1,1,9,2,1,735.06,wordex2_11.png
4,1,1,10,1,1,615.85,wordex4.png
4,1,1,11,1,1,576.55,wordex2_7.png
4,1,1,12,1,1,713.31,wordex2_2.png
4,1,1,13,1,1,794.06,wordex2_6.png
4,1,1,14,2,1,834.78,wordin4.png
4,1,1,15,2,1,627.52,wordin2_2.png
4,1,1,16,2,1,692.18,wordex7.png
4,1,1,17,2,1,908.99,wordin3.png
4,1,1,18,2,1,621.72,wordin12.png
4,1,1,19,2,1,678.39,wordin2_7.png
4,1,1,20,1,1,753.78,wordex2_12.png
4,1,1,21,1,1,626.58,wordin8.png
4,1,1,22,1,1,523.31,wordin2_3.png
4,1,1,23,1,1,651.86,wordin6.png
4,1,1,24,1,1,772.78,wordin5.png
4,1,2,1,2,1,801.6,wordex2_11.png
4,1,2,2,2,1,530.31,wordin2_2.png
4,1,2,3,1,1,851,wordin6.png
4,1,2,4,2,1,1003.75,wordin12.png
4,1,2,5,1,1,484.49,wordex4.png
4,1,2,6,1,1,509.23,wordex2_6.png
4,1,2,7,1,1,693.97,wordin2_6.png
4,1,2,8,1,1,606.66,wordex2_7.png
4,1,2,9,2,1,583.43,wordex9.png
4,1,2,10,2,1,608.1,wordex12.png
4,1,2,11,1,1,736.9,wordin1.png
4,1,2,12,1,1,657.62,wordin8.png
4,1,2,13,0,0,0,wordex2_12.png
4,1,2,14,2,1,819.04,wordin4.png
4,1,2,15,1,1,571.81,wordex2_2.png
4,1,2,16,1,1,596.5,wordin5.png
4,1,2,17,2,1,613.28,wordex7.png
4,1,2,18,2,1,653.95,wordin3.png
4,1,2,19,1,1,710.72,wordex2_10.png
4,1,2,20,1,1,607.43,wordin2_7.png
4,1,2,21,1,1,576.15,wordex1.png
4,1,2,22,1,1,608.89,wordex2.png
4,1,2,23,1,1,745.61,wordex11.png
4,1,2,24,1,1,666.36,wordin2_3.png
4,1,3,1,2,1,628.09,wordin2_6.png
4,1,3,2,2,1,468.78,wordex9.png
4,1,3,3,1,1,701.58,wordex2_12.png
4,1,3,4,2,1,678.25,wordex7.png
4,1,3,5,1,1,735.05,wordin8.png
4,1,3,6,2,1,871.78,wordin4.png
4,1,3,7,2,1,752.51,wordin2_2.png
4,1,3,8,1,1,641.24,wordin5.png
4,1,3,9,1,1,513.93,wordin1.png
4,1,3,10,2,1,826.68,wordex2_11.png
4,1,3,11,1,1,651.43,wordex2_2.png
4,1,3,12,2,1,788.17,wordin12.png
4,1,3,13,1,1,684.83,wordex2_6.png
4,1,3,14,1,1,597.62,wordex2_10.png
4,1,3,15,1,1,542.33,wordex2.png
4,1,3,16,1,1,679.02,wordex11.png
4,1,3,17,2,1,679.76,wordin3.png
4,1,3,18,1,1,760.55,wordex1.png
4,1,3,19,1,1,913.23,wordex2_7.png
4,1,3,20,1,1,793.97,wordin2_3.png
4,1,3,21,2,1,706.73,wordin2_7.png
4,1,3,22,1,1,651.41,wordex4.png
4,1,3,23,2,1,636.15,wordex12.png
4,1,3,24,1,1,660.87,wordin6.png
4,1,4,1,2,1,576.33,wordex12.png
4,1,4,2,2,1,641.09,wordex7.png
4,1,4,3,1,1,761.88,wordin1.png
4,1,4,4,1,1,586.55,wordex2_12.png
4,1,4,5,1,1,523.34,wordex4.png
4,1,4,6,1,1,1148.08,wordex2_10.png
4,1,4,7,2,1,628.74,wordex9.png
4,1,4,8,2,1,629.53,wordex2_7.png
4,1,4,9,1,1,542.24,wordin8.png
4,1,4,10,1,1,486.99,wordin12.png
4,1,4,11,1,1,543.68,wordin2_3.png
4,1,4,12,1,1,472.45,wordex1.png
4,1,4,13,2,1,601.16,wordin3.png
4,1,4,14,1,1,633.91,wordin6.png
4,1,4,15,1,1,522.64,wordin5.png
4,1,4,16,1,1,427.34,wordex2.png
4,1,4,17,1,1,444.07,wordex2_6.png
4,1,4,18,2,1,580.84,wordin2_6.png
4,1,4,19,1,1,637.51,wordin2_2.png
4,1,4,20,1,1,646.3,wordin2_7.png
4,1,4,21,1,1,735.02,wordin4.png
4,1,4,22,1,1,695.72,wordex11.png
4,1,4,23,1,1,536.49,wordex2_11.png
4,1,4,24,1,1,529.22,wordex2_2.png
4,1,5,1,1,1,605.37,wordex2_2.png
4,1,5,2,1,1,526.08,wordin6.png
4,1,5,3,2,1,574.77,wordex7.png
4,1,5,4,1,1,575.53,wordex1.png
4,1,5,5,2,1,624.29,wordin3.png
4,1,5,6,2,1,544.63,wordin2_6.png
4,1,5,7,1,1,577.75,wordin2_2.png
4,1,5,8,2,1,538.48,wordex12.png
4,1,5,9,1,1,587.21,wordex2_6.png
4,1,5,10,2,1,579.95,wordin2_3.png
4,1,5,11,1,1,532.67,wordex11.png
4,1,5,12,1,1,469.35,wordex2_12.png
4,1,5,13,2,1,694.09,wordin2_7.png
4,1,5,14,1,1,742.86,wordin1.png
4,1,5,15,2,1,783.61,wordin12.png
4,1,5,16,1,1,520.33,wordex2.png
4,1,5,17,2,1,769.05,wordex9.png
4,1,5,18,1,1,697.77,wordin4.png
4,1,5,19,1,1,474.46,wordex2_7.png
4,1,5,20,1,1,459.25,wordin8.png
4,1,5,21,1,1,603.98,wordin5.png
4,1,5,22,1,1,500.71,wordex4.png
4,1,5,23,2,1,789.54,wordex2_11.png
4,1,5,24,1,1,478.15,wordex2_10.png
4,1,6,1,0,0,0,wordin12.png
4,1,6,2,1,1,399.09,wordex2_10.png
4,1,6,3,2,1,519.82,wordex7.png
4,1,6,4,2,1,480.51,wordin2_6.png
4,1,6,5,1,1,537.29,wordex2_7.png
4,1,6,6,1,1,618.01,wordex2_12.png
4,1,6,7,1,1,522.75,wordin1.png
4,1,6,8,2,1,691.45,wordin3.png
4,1,6,9,2,1,828.17,wordex2_11.png
4,1,6,10,1,1,572.9,wordin5.png
4,1,6,11,1,1,421.66,wordex2_6.png
4,1,6,12,2,1,558.39,wordex9.png
4,1,6,13,1,1,503.1,wordin8.png
4,1,6,14,1,1,487.8,wordex1.png
4,1,6,15,1,1,456.58,wordex11.png
4,1,6,16,2,1,601.3,wordin4.png
4,1,6,17,1,1,642.05,wordex2_2.png
4,1,6,18,2,1,586.78,wordex12.png
4,1,6,19,2,1,515.52,wordin2_7.png
4,1,6,20,2,1,780.24,wordin6.png
4,1,6,21,1,1,644.99,wordex2.png
4,1,6,22,1,1,533.68,wordin2_3.png
4,1,6,23,1,1,686.4,wordex4.png
4,1,6,24,2,1,655.14,wordin2_2.png
4,1,7,1,1,1,606.74,wordin5.png
4,1,7,2,1,1,527.52,wordex2_12.png
4,1,7,3,1,1,472.24,wordin1.png
4,1,7,4,1,1,432.97,wordin4.png
4,1,7,5,2,1,529.68,wordex9.png
4,1,7,6,1,1,474.39,wordex2.png
4,1,7,7,1,1,547.13,wordin6.png
4,1,7,8,1,1,899.92,wordin2_3.png
4,1,7,9,2,1,516.63,wordex12.png
4,1,7,10,2,1,501.34,wordin12.png
4,1,7,11,2,1,614.1,wordin3.png
4,1,7,12,1,1,614.82,wordex2_10.png
4,1,7,13,1,1,487.53,wordex2_2.png
4,1,7,14,2,1,648.29,wordin2_7.png
4,1,7,15,1,1,641.02,wordex11.png
4,1,7,16,1,1,505.68,wordex2_11.png
4,1,7,17,1,1,626.4,wordex4.png
4,1,7,18,2,1,699.16,wordex2_7.png
4,1,7,19,2,1,483.88,wordex7.png
4,1,7,20,1,1,532.67,wordex2_6.png
4,1,7,21,2,1,661.36,wordin2_6.png
4,1,7,22,2,1,1014.12,wordin2_2.png
4,1,7,23,1,1,606.86,wordin8.png
4,1,7,24,1,1,615.58,wordex1.png
4,1,8,1,2,1,722.99,wordex2.png
4,1,8,2,2,1,475.69,wordex2_7.png
4,1,8,3,1,1,572.43,wordex2_10.png
4,1,8,4,1,1,453.16,wordex4.png
4,1,8,5,2,1,653.89,wordin2_6.png
4,1,8,6,2,1,534.6,wordex9.png
4,1,8,7,1,1,487.33,wordex1.png
4,1,8,8,1,1,432.03,wordin1.png
4,1,8,9,2,1,568.78,wordex7.png
4,1,8,10,2,1,489.54,wordex2_11.png
4,1,8,11,2,1,714.28,wordin6.png
4,1,8,12,1,1,667,wordex2_12.png
4,1,8,13,2,1,675.67,wordin2_2.png
4,1,8,14,2,1,1052.47,wordin2_7.png
4,1,8,15,2,1,533.15,wordin12.png
4,1,8,16,1,1,517.92,wordex2_6.png
4,1,8,17,2,1,614.61,wordex12.png
4,1,8,18,1,1,783.39,wordex2_2.png
4,1,8,19,2,1,680.07,wordin8.png
4,1,8,20,1,1,520.84,wordex11.png
4,1,8,21,1,1,353.52,wordin4.png
4,1,8,22,2,1,410.3,wordin3.png
4,1,8,23,2,1,531.04,wordin2_3.png
4,1,8,24,1,1,619.77,wordin5.png
5,1,1,1,1,1,855.84,wordin2_12.png
5,1,1,2,2,1,805.91,wordin11.png
5,1,1,3,1,1,545.35,wordin2_1.png
5,1,1,4,1,1,410.09,wordin2_5.png
5,1,1,5,1,1,282.81,wordex2_4.png
5,1,1,6,2,1,251.49,wordex2_5.png
5,1,1,7,1,1,172.27,wordin2_4.png
5,1,1,8,1,1,260.96,wordex8.png
5,1,1,9,1,1,288.35,wordin7.png
5,1,1,10,1,1,195.8,wordin2_10.png
5,1,1,11,2,1,231.21,wordex6.png
5,1,1,12,2,1,186.59,wordin2.png
5,1,1,13,2,1,277.98,wordex2_8.png
5,1,1,14,0,0,0,wordex5.png
5,1,1,15,1,1,236.81,wordin2_8.png
5,1,1,16,1,1,288.19,wordex3.png
5,1,1,17,0,0,0,wordin9.png
5,1,1,18,1,1,111,wordex2_9.png
5,1,1,19,1,1,1026.43,wordin2_9.png
5,1,1,20,2,1,1085.8,wordin2_11.png
5,1,1,21,2,1,1001.18,wordin10.png
5,1,1,22,1,1,876.64,wordex2_1.png
5,1,1,23,2,1,960.01,wordex2_3.png
5,1,1,24,2,1,1120.77,wordex10.png
5,1,2,1,1,1,495.87,wordex2_3.png
5,1,2,2,2,1,520.55,wordin2.png
5,1,2,3,2,1,299.97,wordin2_8.png
5,1,2,4,2,1,724.68,wordin2_12.png
5,1,2,5,1,1,901.4,wordex2_5.png
5,1,2,6,2,1,782.17,wordex2_8.png
5,1,2,7,2,1,758.92,wordex2_9.png
5,1,2,8,2,1,591.59,wordin2_9.png
5,1,2,9,1,1,312.34,wordin2_5.png
5,1,2,10,2,1,577.09,wordex6.png
5,1,2,11,2,1,625.83,wordin9.png
5,1,2,12,1,1,506.53,wordex10.png
5,1,2,13,0,0,0,wordex2_1.png
5,1,2,14,1,1,452.02,wordin2_1.png
5,1,2,15,1,1,244.71,wordin11.png
5,1,2,16,1,1,597.45,wordex2_4.png
5,1,2,17,1,1,550.19,wordin7.png
5,1,2,18,1,1,710.93,wordin2_4.png
5,1,2,19,1,1,735.63,wordex5.png
5,1,2,20,2,1,912.41,wordex3.png
5,1,2,21,2,1,889.14,wordin2_11.png
5,1,2,22,2,1,1225.87,wordin10.png
5,1,2,23,1,1,1042.61,wordex8.png
5,1,2,24,2,1,811.31,wordin2_10.png
5,1,3,1,2,1,847.89,wordin10.png
5,1,3,2,2,1,1152.65,wordex5.png
5,1,3,3,1,1,1065.34,wordin11.png
5,1,3,4,1,1,1202.05,wordin2_8.png
5,1,3,5,1,1,973.48,wordin2_1.png
5,1,3,6,2,1,926.2,wordex2_9.png
5,1,3,7,2,1,1158.92,wordin2_4.png
5,1,3,8,2,1,1047.65,wordin7.png
5,1,3,9,1,1,1120.43,wordin2_11.png
5,1,3,10,2,1,1035.79,wordex2_4.png
5,1,3,11,1,1,1012.56,wordex6.png
5,1,3,12,2,1,901.23,wordex8.png
5,1,3,13,2,1,949.96,wordin2_5.png
5,1,3,14,1,1,1225.35,wordex2_5.png
5,1,3,15,1,1,1114.12,wordex2_8.png
5,1,3,16,2,1,1114.87,wordin2_9.png
5,1,3,17,1,1,1123.58,wordex2_1.png
5,1,3,18,2,1,1212.35,wordin2_12.png
5,1,3,19,2,1,1149.01,wordin2_10.png
5,1,3,20,1,1,941.78,wordex10.png
5,1,3,21,1,1,1206.54,wordin9.png
5,1,3,22,2,1,695.25,wordin2.png
5,1,3,23,2,1,1191.93,wordex2_3.png
5,1,3,24,2,1,1096.66,wordex3.png
5,1,4,1,2,1,780.09,wordin2_9.png
5,1,4,2,1,1,1140.81,wordin11.png
5,1,4,3,1,1,1013.55,wordex2_1.png
5,1,4,4,2,1,862.27,wordin2_12.png
5,1,4,5,2,1,910.98,wordex2_9.png
5,1,4,6,2,1,1151.75,wordex2_3.png
5,1,4,7,2,1,1104.44,wordin2_10.png
5,1,4,8,2,1,1056.91,wordex5.png
5,1,4,9,2,1,1105.89,wordex8.png
5,1,4,10,1,1,986.66,wordin9.png
5,1,4,11,1,1,1131.38,wordin2_1.png
5,1,4,12,1,1,1196.09,wordex2_4.png
5,1,4,13,1,1,1164.85,wordin2_4.png
5,1,4,14,1,1,1181.56,wordin2_8.png
5,1,4,15,1,1,1078.31,wordin7.png
5,1,4,16,2,1,945.66,wordin2.png
5,1,4,17,2,1,874.39,wordex6.png
5,1,4,18,1,1,707.14,wordex2_5.png
5,1,4,19,2,1,955.85,wordin10.png
5,1,4,20,2,1,1116.61,wordex10.png
5,1,4,21,1,1,1045.3,wordex3.png
5,1,4,22,0,0,0,wordex2_8.png
5,1,4,23,0,0,0,wordin2_11.png
5,1,4,24,2,1,1215.53,wordin2_5.png
5,1,5,1,1,1,343.26,wordin2_9.png
5,1,5,2,1,1,567.98,wordex2_8.png
5,1,5,3,1,1,472.75,wordin2_1.png
5,1,5,4,1,1,457.44,wordin2_4.png
5,1,5,5,1,1,538.21,wordin2_8.png
5,1,5,6,2,1,626.93,wordin10.png
5,1,5,7,2,1,667.68,wordin2_12.png
5,1,5,8,1,1,812.35,wordex5.png
5,1,5,9,1,1,853.12,wordin2_10.png
5,1,5,10,2,1,885.82,wordex3.png
5,1,5,11,2,1,1094.54,wordex2_3.png
5,1,5,12,1,1,1015.33,wordin2.png
5,1,5,13,2,1,1112.04,wordin7.png
5,1,5,14,2,1,1104.79,wordex10.png
5,1,5,15,1,1,1081.52,wordex8.png
5,1,5,16,2,1,1162.26,wordex2_9.png
5,1,5,17,1,1,922.98,wordin9.png
5,1,5,18,2,1,795.67,wordex6.png
5,1,5,19,1,1,628.43,wordex2_5.png
5,1,5,20,2,1,821.17,wordin11.png
5,1,5,21,1,1,701.88,wordex2_4.png
5,1,5,22,1,1,606.6,wordex2_1.png
5,1,5,23,0,0,0,wordin2_11.png
5,1,5,24,2,1,416.07,wordin2_5.png
5,1,6,1,1,1,640,wordin2_8.png
5,1,6,2,2,1,408.71,wordex10.png
5,1,6,3,1,1,249.5,wordex8.png
5,1,6,4,1,1,338.23,wordin2_10.png
5,1,6,5,1,1,410.9,wordin2_1.png
5,1,6,6,1,1,315.69,wordex6.png
5,1,6,7,2,1,676.36,wordin2_9.png
5,1,6,8,2,1,661.16,wordin2_12.png
5,1,6,9,0,0,0,wordex2_9.png
5,1,6,10,1,1,830.61,wordin2_5.png
5,1,6,11,1,1,823.31,wordex5.png
5,1,6,12,1,1,559.96,wordex2_8.png
5,1,6,13,1,1,504.76,wordex2_5.png
5,1,6,14,1,1,1097.54,wordex3.png
5,1,6,15,2,1,658.21,wordin10.png
5,1,6,16,2,1,691,wordin7.png
5,1,6,17,2,1,899.69,wordin11.png
5,1,6,18,2,1,1012.47,wordex2_3.png
5,1,6,19,2,1,1149.15,wordin2_11.png
5,1,6,20,1,1,1021.92,wordin2_4.png
5,1,6,21,1,1,705.29,wordex2_4.png
5,1,6,22,2,1,842.01,wordex2_1.png
5,1,6,23,2,1,714.77,wordin2.png
5,1,6,24,1,1,891.48,wordin9.png
5,1,7,1,2,1,576.16,wordin10.png
5,1,7,2,1,1,544.89,wordex3.png
5,1,7,3,1,1,353.61,wordex2_1.png
5,1,7,4,1,1,506.37,wordex8.png
5,1,7,5,1,1,499.08,wordin2_4.png
5,1,7,6,2,1,539.85,wordin2_12.png
5,1,7,7,1,1,604.54,wordin2_1.png
5,1,7,8,1,1,837.32,wordex6.png
5,1,7,9,1,1,589.98,wordex2_3.png
5,1,7,10,2,1,630.74,wordin2_5.png
5,1,7,11,1,1,607.5,wordex5.png
5,1,7,12,1,1,504.2,wordin2_11.png
5,1,7,13,2,1,560.93,wordex2_9.png
5,1,7,14,2,1,665.66,wordin2.png
5,1,7,15,2,1,1485.1,wordin2_8.png
5,1,7,16,2,1,549.77,wordex10.png
5,1,7,17,2,1,526.49,wordin2_10.png
5,1,7,18,1,1,295.21,wordin2_9.png
5,1,7,19,1,1,952,wordex2_8.png
5,1,7,20,1,1,1064.76,wordex2_5.png
5,1,7,21,1,1,1009.49,wordin9.png
5,1,7,22,1,1,1282.21,wordin11.png
5,1,7,23,2,1,1090.93,wordin7.png
5,1,7,24,0,0,0,wordex2_4.png
5,1,8,1,1,1,610.45,wordex2_3.png
5,1,8,2,2,1,651.16,wordin2_9.png
5,1,8,3,2,1,603.93,wordex2_9.png
5,1,8,4,2,1,516.62,wordin2_4.png
5,1,8,5,1,1,581.36,wordex3.png
5,1,8,6,2,1,926.12,wordin11.png
5,1,8,7,2,1,1302.83,wordin2_12.png
5,1,8,8,1,1,1119.55,wordex2_5.png
5,1,8,9,1,1,976.32,wordin2_10.png
5,1,8,10,1,1,552.93,wordin2_1.png
5,1,8,11,2,1,561.75,wordin10.png
5,1,8,12,2,1,826.51,wordin2_11.png
5,1,8,13,2,1,979.22,wordex5.png
5,1,8,14,1,1,1091.95,wordex10.png
5,1,8,15,2,1,756.67,wordin2.png
5,1,8,16,1,1,861.42,wordex8.png
5,1,8,17,2,1,886.1,wordex2_8.png
5,1,8,18,1,1,1262.9,wordex2_4.png
5,1,8,19,2,1,1055.62,wordin2_5.png
5,1,8,20,2,1,696.3,wordin7.png
5,1,8,21,2,1,937.04,wordin2_8.png
5,1,8,22,2,1,745.79,wordex2_1.png
5,1,8,23,1,1,378.51,wordex6.png
5,1,8,24,1,1,515.19,wordin9.png
6,1,1,1,1,1,1523.87,wordex2_2.png
6,1,1,2,1,1,687.36,wordin9.png
6,1,1,3,2,1,672.12,wordex2_10.png
6,1,1,4,2,1,872.94,wordex2_12.png
6,1,1,5,1,1,649.72,wordin7.png
6,1,1,6,1,1,802.52,wordin8.png
6,1,1,7,2,1,619.3,wordex9.png
6,1,1,8,2,1,804.04,wordex2.png
6,1,1,9,2,1,788.83,wordex2_6.png
6,1,1,10,2,1,909.65,wordex7.png
6,1,1,11,2,1,934.44,wordex2_5.png
6,1,1,12,1,1,495.21,wordin2_1.png
6,1,1,13,1,1,647.92,wordex6.png
6,1,1,14,2,1,840.77,wordex8.png
6,1,1,15,1,1,609.57,wordin2_9.png
6,1,1,16,1,1,634.33,wordin2.png
6,1,1,17,2,1,787.12,wordin6.png
6,1,1,18,1,1,643.89,wordex2_4.png
6,1,1,19,2,1,780.7,wordin2_2.png
6,1,1,20,1,1,653.45,wordex2_3.png
6,1,1,21,1,1,598.22,wordex2_8.png
6,1,1,22,2,1,695,wordin5.png
6,1,1,23,1,1,919.82,wordin3.png
6,1,1,24,2,1,768.64,wordin10.png
6,1,2,1,1,1,574.42,wordin9.png
6,1,2,2,1,1,503.24,wordin2.png
6,1,2,3,1,1,447.92,wordex2_2.png
6,1,2,4,2,1,560.77,wordex2_12.png
6,1,2,5,2,1,537.58,wordex9.png
6,1,2,6,1,1,538.31,wordin2_9.png
6,1,2,7,1,1,539.11,wordex2_5.png
6,1,2,8,1,1,539.93,wordin2_1.png
6,1,2,9,2,1,580.72,wordin2_2.png
6,1,2,10,1,1,525.52,wordex6.png
6,1,2,11,1,1,606.27,wordex7.png
6,1,2,12,1,1,623.09,wordin8.png
6,1,2,13,2,1,583.81,wordex2_10.png
6,1,2,14,2,1,960.61,wordin3.png
6,1,2,15,2,1,689.44,wordin10.png
6,1,2,16,1,1,706.17,wordex2_8.png
6,1,2,17,2,1,659.01,wordin6.png
6,1,2,18,2,1,659.79,wordex8.png
6,1,2,19,2,1,628.57,wordin5.png
6,1,2,20,1,1,557.32,wordex2_4.png
6,1,2,21,1,1,518.14,wordin7.png
6,1,2,22,1,1,502.89,wordex2_3.png
6,1,2,23,1,1,575.72,wordex2.png
6,1,2,24,2,1,616.49,wordex2_6.png
6,1,3,1,2,1,760.51,wordex2_4.png
6,1,3,2,1,1,633.27,wordin8.png
6,1,3,3,2,1,594.06,wordex2_6.png
6,1,3,4,2,1,738.86,wordex8.png
6,1,3,5,1,1,547.67,wordin2.png
6,1,3,6,1,1,628.41,wordex2_12.png
6,1,3,7,1,1,773.25,wordex6.png
6,1,3,8,2,1,550.04,wordin10.png
6,1,3,9,1,1,534.78,wordin2_1.png
6,1,3,10,2,1,615.59,wordex2_10.png
6,1,3,11,1,1,752.39,wordex2_2.png
6,1,3,12,1,1,585.13,wordex2_8.png
6,1,3,13,2,1,713.94,wordex7.png
6,1,3,14,2,1,538.75,wordex9.png
6,1,3,15,1,1,595.51,wordin9.png
6,1,3,16,1,1,540.3,wordex2_3.png
6,1,3,17,1,1,709.1,wordin7.png
6,1,3,18,2,1,645.85,wordin3.png
6,1,3,19,1,1,518.67,wordin2_9.png
6,1,3,20,2,1,631.39,wordin6.png
6,1,3,21,2,1,544.24,wordex2.png
6,1,3,22,2,1,625,wordex2_5.png
6,1,3,23,2,1,729.79,wordin5.png
6,1,3,24,2,1,650.59,wordin2_2.png
6,1,4,1,1,1,538.46,wordex6.png
6,1,4,2,1,1,523.3,wordin2_9.png
6,1,4,3,1,1,636.1,wordex2_4.png
6,1,4,4,2,1,580.85,wordex2_12.png
6,1,4,5,2,1,493.66,wordin3.png
6,1,4,6,1,1,526.45,wordex2_3.png
6,1,4,7,2,1,503.17,wordin5.png
6,1,4,8,2,1,591.98,wordex8.png
6,1,4,9,2,1,536.75,wordin6.png
6,1,4,10,2,1,433.53,wordex7.png
6,1,4,11,1,1,586.37,wordex2_2.png
6,1,4,12,2,1,595.11,wordin10.png
6,1,4,13,1,1,579.89,wordin7.png
6,1,4,14,2,1,708.67,wordex2_10.png
6,1,4,15,2,1,669.44,wordin2_2.png
6,1,4,16,2,1,702.26,wordex2.png
6,1,4,17,2,1,559.07,wordex2_6.png
6,1,4,18,2,1,543.86,wordex9.png
6,1,4,19,1,1,504.6,wordin8.png
6,1,4,20,1,1,513.37,wordin2_1.png
6,1,4,21,1,1,610.22,wordin2.png
6,1,4,22,1,1,578.96,wordin9.png
6,1,4,23,1,1,555.75,wordex2_8.png
6,1,4,24,1,1,644.52,wordex2_5.png
6,1,5,1,2,1,795.09,wordex2_12.png
6,1,5,2,2,1,563.86,wordex2.png
6,1,5,3,2,1,596.62,wordin6.png
6,1,5,4,2,1,533.44,wordin10.png
6,1,5,5,2,1,638.23,wordex2_5.png
6,1,5,6,1,1,631.01,wordex2_2.png
6,1,5,7,1,1,759.8,wordin2_9.png
6,1,5,8,1,1,504.56,wordin2_1.png
6,1,5,9,1,1,489.31,wordin8.png
6,1,5,10,1,1,538.14,wordex2_3.png
6,1,5,11,2,1,1010.92,wordin5.png
6,1,5,12,2,1,627.71,wordex9.png
6,1,5,13,1,1,860.51,wordex2_4.png
6,1,5,14,2,1,661.29,wordex2_6.png
6,1,5,15,1,1,582.06,wordex2_8.png
6,1,5,16,1,1,638.86,wordex6.png
6,1,5,17,2,1,663.61,wordin3.png
6,1,5,18,1,1,704.39,wordin7.png
6,1,5,19,2,1,513.21,wordex2_10.png
6,1,5,20,2,1,778,wordex7.png
6,1,5,21,1,1,578.72,wordin2.png
6,1,5,22,2,1,635.51,wordex8.png
6,1,5,23,2,1,500.31,wordin2_2.png
6,1,5,24,1,1,509.14,wordin9.png
6,1,6,1,1,1,591.34,wordex2.png
6,1,6,2,2,1,736.12,wordin3.png
6,1,6,3,2,1,536.9,wordin6.png
6,1,6,4,2,1,465.65,wordin8.png
6,1,6,5,1,1,498.41,wordex2_2.png
6,1,6,6,1,1,707.25,wordin5.png
6,1,6,7,1,1,476.04,wordin7.png
6,1,6,8,1,1,444.79,wordin2_9.png
6,1,6,9,1,1,541.6,wordin2_1.png
6,1,6,10,1,1,806.36,wordex2_8.png
6,1,6,11,2,1,679.18,wordex9.png
6,1,6,12,2,1,575.96,wordex7.png
6,1,6,13,2,1,624.74,wordin2_2.png
6,1,6,14,2,1,1433.49,wordex2_12.png
6,1,6,15,2,1,538.24,wordex2_10.png
6,1,6,16,1,1,579.05,wordin2.png
6,1,6,17,1,1,627.83,wordex2_4.png
6,1,6,18,2,1,644.62,wordex8.png
6,1,6,19,2,1,613.39,wordex2_6.png
6,1,6,20,1,1,678.24,wordin9.png
6,1,6,21,1,1,534.99,wordex2_3.png
6,1,6,22,1,1,831.81,wordex2_5.png
6,1,6,23,1,1,984.59,wordex6.png
6,1,6,24,2,1,657.36,wordin10.png
6,1,7,1,2,1,788.1,wordex2_5.png
6,1,7,2,1,1,524.93,wordin9.png
6,1,7,3,1,1,549.75,wordex2_4.png
6,1,7,4,2,1,606.54,wordex9.png
6,1,7,5,1,1,751.26,wordin2.png
6,1,7,6,2,1,584.1,wordin3.png
6,1,7,7,2,1,712.84,wordin2_2.png
6,1,7,8,1,1,489.67,wordex2_3.png
6,1,7,9,1,1,370.4,wordin7.png
6,1,7,10,2,1,587.24,wordex8.png
6,1,7,11,2,1,731.98,wordex2.png
6,1,7,12,1,1,636.81,wordin2_1.png
6,1,7,13,2,1,685.6,wordex2_6.png
6,1,7,14,1,1,926.38,wordex6.png
6,1,7,15,1,1,607.17,wordex2_8.png
6,1,7,16,1,1,575.95,wordex2_2.png
6,1,7,17,2,1,552.71,wordin5.png
6,1,7,18,1,1,529.47,wordin8.png
6,1,7,19,2,1,618.3,wordex2_10.png
6,1,7,20,1,1,579.07,wordin2_9.png
6,1,7,21,2,1,587.87,wordex7.png
6,1,7,22,2,1,540.62,wordin10.png
6,1,7,23,2,1,813.38,wordin6.png
6,1,7,24,2,1,774.2,wordex2_12.png
6,1,8,1,1,1,599.22,wordin2_9.png
6,1,8,2,2,1,551.96,wordex2_6.png
6,1,8,3,2,1,584.78,wordin10.png
6,1,8,4,1,1,465.59,wordex2_8.png
6,1,8,5,1,1,594.37,wordin7.png
6,1,8,6,1,1,771.11,wordex2_4.png
6,1,8,7,1,1,555.94,wordin3.png
6,1,8,8,1,1,876.72,wordex2_3.png
6,1,8,9,1,1,541.51,wordex7.png
6,1,8,10,1,1,694.26,wordin5.png
6,1,8,11,2,1,511.08,wordex9.png
6,1,8,12,1,1,871.79,wordin2_1.png
6,1,8,13,1,1,904.62,wordin8.png
6,1,8,14,2,1,681.43,wordex2_5.png
6,1,8,15,1,1,682.21,wordex6.png
6,1,8,16,1,1,1323,wordin2_2.png
6,1,8,17,1,1,339.78,wordex2_2.png
6,1,8,18,2,1,572.52,wordex2.png
6,1,8,19,2,1,589.35,wordin6.png
6,1,8,20,1,1,566.09,wordin9.png
6,1,8,21,2,1,822.92,wordex8.png
6,1,8,22,2,1,631.68,wordex2_10.png
6,1,8,23,2,1,1192.43,wordin2.png
6,1,8,24,2,1,449.27,wordex2_12.png
7,1,1,1,1,1,785.93,wordex5.png
7,1,1,2,2,1,693.36,wordin2_11.png
7,1,1,3,1,1,822.18,wordin2_6.png
7,1,1,4,1,1,1198.97,wordin2_12.png
7,1,1,5,1,1,575.71,wordin2_8.png
7,1,1,6,1,1,528.51,wordex2_9.png
7,1,1,7,2,1,745.32,wordex12.png
7,1,1,8,1,1,498.11,wordex2_11.png
7,1,1,9,1,1,458.89,wordex1.png
7,1,1,10,1,1,523.6,wordin2_4.png
7,1,1,11,1,1,676.39,wordin2_3.png
7,1,1,12,2,1,581.2,wordin2_7.png
7,1,1,13,1,1,766.03,wordex3.png
7,1,1,14,1,1,494.78,wordin11.png
7,1,1,15,2,1,543.59,wordin2_10.png
7,1,1,16,1,1,512.68,wordex11.png
7,1,1,17,1,1,593.16,wordex4.png
7,1,1,18,1,1,481.93,wordex10.png
7,1,1,19,2,1,506.71,wordin2_5.png
7,1,1,20,1,1,491.51,wordin1.png
7,1,1,21,2,1,644.22,wordex2_7.png
7,1,1,22,1,1,581.07,wordin4.png
7,1,1,23,1,1,573.81,wordex2_1.png
7,1,1,24,1,1,542.58,wordin12.png
7,1,2,1,1,1,675.9,wordin2_4.png
7,1,2,2,1,1,540.77,wordex11.png
7,1,2,3,1,1,597.55,wordex10.png
7,1,2,4,1,1,558.29,wordex3.png
7,1,2,5,2,1,607.09,wordex12.png
7,1,2,6,1,1,575.9,wordin12.png
7,1,2,7,1,1,632.66,wordex1.png
7,1,2,8,1,1,721.43,wordin4.png
7,1,2,9,1,1,690.23,wordin2_3.png
7,1,2,10,2,1,587.01,wordin2_12.png
7,1,2,11,1,1,611.79,wordex5.png
7,1,2,12,1,1,564.61,wordex2_1.png
7,1,2,13,2,1,613.39,wordin2_10.png
7,1,2,14,1,1,526.17,wordex4.png
7,1,2,15,2,1,526.97,wordin2_11.png
7,1,2,16,1,1,879.71,wordex2_7.png
7,1,2,17,1,1,608.52,wordin2_6.png
7,1,2,18,1,1,979.99,wordex2_9.png
7,1,2,19,1,1,564.77,wordin2_8.png
7,1,2,20,2,1,509.55,wordin2_5.png
7,1,2,21,1,1,510.27,wordex2_11.png
7,1,2,22,1,1,527.11,wordin11.png
7,1,2,23,2,1,663.84,wordin2_7.png
7,1,2,24,1,1,480.68,wordin1.png
7,1,3,1,1,1,498.63,wordin2_8.png
7,1,3,2,1,1,435.33,wordin2_7.png
7,1,3,3,2,1,524.18,wordin2_5.png
7,1,3,4,1,1,452.91,wordex5.png
7,1,3,5,2,1,589.72,wordin2_10.png
7,1,3,6,1,1,438.47,wordex3.png
7,1,3,7,1,1,703.32,wordex2_7.png
7,1,3,8,1,1,416.1,wordin2_3.png
7,1,3,9,2,1,536.88,wordex12.png
7,1,3,10,2,1,633.63,wordin2_12.png
7,1,3,11,1,1,554.44,wordex10.png
7,1,3,12,1,1,539.19,wordin11.png
7,1,3,13,2,1,508.02,wordin2_11.png
7,1,3,14,1,1,420.74,wordex4.png
7,1,3,15,1,1,485.55,wordin1.png
7,1,3,16,1,1,406.31,wordex2_11.png
7,1,3,17,1,1,143.13,wordin12.png
7,1,3,18,1,1,439.89,wordin4.png
7,1,3,19,1,1,448.67,wordex1.png
7,1,3,20,1,1,753.46,wordin2_4.png
7,1,3,21,1,1,498.29,wordex2_1.png
7,1,3,22,1,1,475.07,wordex11.png
7,1,3,23,1,1,555.85,wordin2_6.png
7,1,3,24,1,1,516.63,wordex2_9.png
7,1,4,1,1,1,534.16,wordex1.png
7,1,4,2,1,1,798.99,wordin12.png
7,1,4,3,1,1,479.82,wordex5.png
7,1,4,4,1,1,480.59,wordex2_9.png
7,1,4,5,1,1,465.35,wordex10.png
7,1,4,6,1,1,498.17,wordex3.png
7,1,4,7,2,1,482.94,wordex12.png
7,1,4,8,1,1,451.73,wordin2_6.png
7,1,4,9,1,1,508.51,wordex2_7.png
7,1,4,10,1,1,437.24,wordin2_8.png
7,1,4,11,2,1,590.08,wordin2_7.png
7,1,4,12,2,1,518.87,wordin2_12.png
7,1,4,13,1,1,431.59,wordex2_1.png
7,1,4,14,1,1,624.44,wordin4.png
7,1,4,15,1,1,545.17,wordex2_11.png
7,1,4,16,1,1,697.94,wordin2_4.png
7,1,4,17,2,1,482.79,wordin2_5.png
7,1,4,18,1,1,427.53,wordin11.png
7,1,4,19,2,1,524.36,wordin2_11.png
7,1,4,20,1,1,493.13,wordex11.png
7,1,4,21,1,1,557.92,wordin2_3.png
7,1,4,22,2,1,518.66,wordin2_10.png
7,1,4,23,1,1,451.99,wordin1.png
7,1,4,24,1,1,464.27,wordex4.png
7,1,5,1,1,1,887.43,wordex2_11.png
7,1,5,2,1,1,512.2,wordin2_6.png
7,1,5,3,1,1,424.98,wordex4.png
7,1,5,4,1,1,433.77,wordex11.png
7,1,5,5,1,1,458.58,wordin2_3.png
7,1,5,6,1,1,571.36,wordin12.png
7,1,5,7,2,1,628.09,wordex2_7.png
7,1,5,8,1,1,500.92,wordex2_1.png
7,1,5,9,2,1,565.71,wordin2_10.png
7,1,5,10,2,1,590.45,wordin2_7.png
7,1,5,11,2,1,543.22,wordin2_12.png
7,1,5,12,1,1,488.06,wordin2_4.png
7,1,5,13,1,1,408.78,wordex3.png
7,1,5,14,1,1,457.63,wordin2_8.png
7,1,5,15,1,1,386.34,wordex5.png
7,1,5,16,1,1,435.14,wordin11.png
7,1,5,17,2,1,547.97,wordex12.png
7,1,5,18,1,1,452.72,wordex10.png
7,1,5,19,1,1,533.55,wordin1.png
7,1,5,20,2,1,646.27,wordin2_11.png
7,1,5,21,1,1,519.05,wordin4.png
7,1,5,22,1,1,559.89,wordex2_9.png
7,1,5,23,2,1,584.68,wordin2_5.png
7,1,5,24,1,1,441.47,wordex1.png
7,1,6,1,1,1,592.59,wordex2_1.png
7,1,6,2,1,1,417.37,wordin2_6.png
7,1,6,3,1,1,482.17,wordin2_8.png
7,1,6,4,1,1,410.95,wordin11.png
7,1,6,5,1,1,539.7,wordin4.png
7,1,6,6,1,1,428.49,wordex4.png
7,1,6,7,1,1,413.3,wordex5.png
7,1,6,8,2,1,598.06,wordex2_7.png
7,1,6,9,2,1,1070.81,wordin2_11.png
7,1,6,10,1,1,495.61,wordex1.png
7,1,6,11,1,1,496.43,wordex11.png
7,1,6,12,2,1,793.21,wordin12.png
7,1,6,13,1,1,553.95,wordin2_4.png
7,1,6,14,2,1,490.74,wordin2_5.png
7,1,6,15,2,1,659.52,wordin2_7.png
7,1,6,16,1,1,476.31,wordex2_11.png
7,1,6,17,1,1,373.08,wordin2_3.png
7,1,6,18,1,1,189.9,wordin2_12.png
7,1,6,19,1,1,382.66,wordex2_9.png
7,1,6,20,1,1,463.45,wordin1.png
7,1,6,21,2,1,592.27,wordex12.png
7,1,6,22,2,1,625.02,wordin2_10.png
7,1,6,23,1,1,385.81,wordex3.png
7,1,6,24,1,1,314.59,wordex10.png
7,1,7,1,1,1,367.01,wordex5.png
7,1,7,2,1,1,447.82,wordin11.png
7,1,7,3,1,1,496.57,wordex2_1.png
7,1,7,4,1,1,425.41,wordex1.png
7,1,7,5,1,1,594.17,wordex4.png
7,1,7,6,1,1,506.98,wordin2_3.png
7,1,7,7,2,1,547.77,wordin2_7.png
7,1,7,8,2,1,732.55,wordin12.png
7,1,7,9,2,1,549.33,wordin2_11.png
7,1,7,10,1,1,494.12,wordin1.png
7,1,7,11,2,1,510.84,wordin2_12.png
7,1,7,12,1,1,527.69,wordex2_9.png
7,1,7,13,1,1,464.41,wordex11.png
7,1,7,14,2,1,561.2,wordex2_7.png
7,1,7,15,1,1,946.03,wordex10.png
7,1,7,16,1,1,586.8,wordin2_8.png
7,1,7,17,2,1,507.6,wordin2_10.png
7,1,7,18,1,1,444.35,wordin2_4.png
7,1,7,19,1,1,525.17,wordex2_11.png
7,1,7,20,1,1,629.95,wordin4.png
7,1,7,21,1,1,446.72,wordin2_6.png
7,1,7,22,1,1,423.51,wordex3.png
7,1,7,23,2,1,528.31,wordex12.png
7,1,7,24,2,1,641.02,wordin2_5.png
7,1,8,1,1,1,626.76,wordex2_7.png
7,1,8,2,2,1,555.56,wordin2_10.png
7,1,8,3,2,1,540.32,wordex12.png
7,1,8,4,1,1,541.13,wordex10.png
7,1,8,5,1,1,821.96,wordex2_11.png
7,1,8,6,1,1,446.68,wordex2_9.png
7,1,8,7,1,1,575.52,wordin2_8.png
7,1,8,8,1,1,392.31,wordex11.png
7,1,8,9,1,1,1081.09,wordin2_7.png
7,1,8,10,1,1,841.86,wordin1.png
7,1,8,11,1,1,522.6,wordex5.png
7,1,8,12,2,1,291.44,wordex3.png
7,1,8,13,1,1,452.2,wordex1.png
7,1,8,14,1,1,372.94,wordin2_4.png
7,1,8,15,2,1,469.74,wordin2_12.png
7,1,8,16,2,1,486.54,wordin2_11.png
7,1,8,17,2,1,543.31,wordin2_5.png
7,1,8,18,2,1,720.14,wordin12.png
7,1,8,19,1,1,464.9,wordex4.png
7,1,8,20,1,1,449.7,wordin2_3.png
7,1,8,21,1,1,402.48,wordex2_1.png
7,1,8,22,2,1,627.26,wordin2_6.png
7,1,8,23,1,1,556.05,wordin4.png
7,1,8,24,1,1,484.84,wordin11.png
8,1,1,1,1,1,672.37,wordin9.png
8,1,1,2,2,1,675.86,wordin2_12.png
8,1,1,3,1,1,588.65,wordin2_1.png
8,1,1,4,1,1,917.44,wordin2_9.png
8,1,1,5,1,1,982.2,wordin2_4.png
8,1,1,6,1,1,1062.96,wordex3.png
8,1,1,7,0,0,0,wordex5.png
8,1,1,8,1,1,568.57,wordex8.png
8,1,1,9,2,1,273.35,wordex2_8.png
8,1,1,10,1,1,330.11,wordin7.png
8,1,1,11,1,1,530.86,wordin2_10.png
8,1,1,12,1,1,491.7,wordin11.png
8,1,1,13,2,1,532.49,wordin10.png
8,1,1,14,1,1,621.21,wordin2.png
8,1,1,15,1,1,622.02,wordin2_8.png
8,1,1,16,2,1,558.84,wordin2_5.png
8,1,1,17,1,1,631.62,wordex2_4.png
8,1,1,18,1,1,720.35,wordex6.png
8,1,1,19,1,1,665.18,wordex10.png
8,1,1,20,2,1,809.94,wordex2_1.png
8,1,1,21,2,1,586.71,wordin2_11.png
8,1,1,22,1,1,715.46,wordex2_5.png
8,1,1,23,2,1,596.32,wordex2_9.png
8,1,1,24,1,1,549.06,wordex2_3.png
8,1,2,1,2,1,671.82,wordin2_5.png
8,1,2,2,2,1,592.55,wordin2_12.png
8,1,2,3,0,0,0,wordex2_1.png
8,1,2,4,1,1,586.15,wordin2_10.png
8,1,2,5,1,1,698.88,wordex8.png
8,1,2,6,2,1,699.73,wordex2_8.png
8,1,2,7,1,1,532.49,wordex2_4.png
8,1,2,8,1,1,541.23,wordex5.png
8,1,2,9,1,1,542.06,wordex2_3.png
8,1,2,10,1,1,582.82,wordex2_5.png
8,1,2,11,1,1,679.65,wordin2_9.png
8,1,2,12,1,1,464.38,wordex6.png
8,1,2,13,1,1,545.21,wordin2_4.png
8,1,2,14,1,1,497.98,wordin11.png
8,1,2,15,1,1,602.78,wordex3.png
8,1,2,16,1,1,683.56,wordin7.png
8,1,2,17,2,1,860.32,wordin2_11.png
8,1,2,18,2,1,541.08,wordex2_9.png
8,1,2,19,2,1,893.91,wordin2_1.png
8,1,2,20,1,1,542.69,wordin2.png
8,1,2,21,2,1,607.46,wordin10.png
8,1,2,22,1,1,984.26,wordin2_8.png
8,1,2,23,1,1,441.05,wordex10.png
8,1,2,24,1,1,489.83,wordin9.png
8,1,3,1,2,1,649.15,wordin2_1.png
8,1,3,2,1,1,777.99,wordin9.png
8,1,3,3,1,1,570.75,wordin2_10.png
8,1,3,4,1,1,531.58,wordex2_3.png
8,1,3,5,1,1,644.35,wordex2_4.png
8,1,3,6,1,1,757.07,wordex2_5.png
8,1,3,7,2,1,653.87,wordex2_1.png
8,1,3,8,2,1,518.72,wordin2_11.png
8,1,3,9,0,0,0,wordex5.png
8,1,3,10,0,0,0,wordin2.png
8,1,3,11,1,1,505.01,wordex3.png
8,1,3,12,1,1,617.84,wordin11.png
8,1,3,13,1,1,722.61,wordin2_4.png
8,1,3,14,2,1,587.37,wordex2_8.png
8,1,3,15,1,1,636.2,wordin2_8.png
8,1,3,16,2,1,572.93,wordin10.png
8,1,3,17,1,1,565.74,wordin7.png
8,1,3,18,1,1,510.55,wordex6.png
8,1,3,19,2,1,519.32,wordin2_5.png
8,1,3,20,1,1,544.11,wordin2_9.png
8,1,3,21,1,1,520.88,wordex8.png
8,1,3,22,2,1,537.68,wordin2_12.png
8,1,3,23,1,1,578.45,wordex10.png
8,1,3,24,2,1,635.22,wordex2_9.png
8,1,4,1,1,1,527.79,wordex6.png
8,1,4,2,2,1,648.55,wordex2_1.png
8,1,4,3,2,1,993.37,wordin2_1.png
8,1,4,4,1,1,506.15,wordin2_9.png
8,1,4,5,1,1,666.94,wordex2_4.png
8,1,4,6,1,1,475.71,wordin2.png
8,1,4,7,1,1,548.5,wordex5.png
8,1,4,8,2,1,597.23,wordin10.png
8,1,4,9,2,1,462,wordin2_12.png
8,1,4,10,2,1,438.84,wordin2_11.png
8,1,4,11,0,0,0,wordex2_5.png
8,1,4,12,2,1,600.42,wordex2_8.png
8,1,4,13,1,1,457.13,wordex2_3.png
8,1,4,14,1,1,377.96,wordex10.png
8,1,4,15,1,1,330.77,wordin7.png
8,1,4,16,1,1,323.5,wordin2_10.png
8,1,4,17,1,1,311.01,wordex8.png
8,1,4,18,1,1,375.76,wordin9.png
8,1,4,19,1,1,416.53,wordin2_8.png
8,1,4,20,1,1,481.34,wordex3.png
8,1,4,21,1,1,346.11,wordin2_5.png
8,1,4,22,1,1,490.91,wordin11.png
8,1,4,23,1,1,459.7,wordin2_4.png
8,1,4,24,2,1,1068.53,wordex2_9.png
8,1,5,1,1,1,528.93,wordex2_4.png
8,1,5,2,1,1,561.78,wordin9.png
8,1,5,3,1,1,474.57,wordex6.png
8,1,5,4,1,1,395.35,wordex5.png
8,1,5,5,1,1,468.14,wordex8.png
8,1,5,6,2,1,628.87,wordin2_11.png
8,1,5,7,2,1,517.65,wordin2_1.png
8,1,5,8,1,1,598.49,wordin2_9.png
8,1,5,9,1,1,511.25,wordin2_4.png
8,1,5,10,1,1,559.92,wordex3.png
8,1,5,11,2,1,504.8,wordin2_5.png
8,1,5,12,1,1,745.62,wordex10.png
8,1,5,13,1,1,410.4,wordin2_10.png
8,1,5,14,1,1,467.18,wordex2_3.png
8,1,5,15,2,1,507.97,wordin10.png
8,1,5,16,1,1,468.75,wordin7.png
8,1,5,17,1,1,517.54,wordin11.png
8,1,5,18,2,1,502.26,wordex2_1.png
8,1,5,19,1,1,535.03,wordin2.png
8,1,5,20,1,1,607.84,wordex2_5.png
8,1,5,21,2,1,552.67,wordin2_12.png
8,1,5,22,2,1,585.46,wordex2_8.png
8,1,5,23,2,1,474.22,wordex2_9.png
8,1,5,24,1,1,571.03,wordin2_8.png
8,1,6,1,2,1,484.76,wordin2_5.png
8,1,6,2,1,1,629.58,wordex2_4.png
8,1,6,3,2,1,502.28,wordin10.png
8,1,6,4,1,1,479.09,wordin11.png
8,1,6,5,1,1,943.93,wordin9.png
8,1,6,6,1,1,416.67,wordex6.png
8,1,6,7,1,1,345.43,wordin2_11.png
8,1,6,8,1,1,346.23,wordex2_1.png
8,1,6,9,1,1,355.01,wordex8.png
8,1,6,10,1,1,243.83,wordex10.png
8,1,6,11,1,1,348.58,wordin2.png
8,1,6,12,1,1,317.41,wordin2_9.png
8,1,6,13,1,1,774.19,wordex2_9.png
8,1,6,14,2,1,518.98,wordex2_5.png
8,1,6,15,1,1,263.72,wordin2_12.png
8,1,6,16,2,1,360.52,wordex2_3.png
8,1,6,17,1,1,249.32,wordin2_4.png
8,1,6,18,2,1,386.11,wordin2_1.png
8,1,6,19,1,1,66.89,wordin2_10.png
8,1,6,20,1,1,579.68,wordin2_8.png
8,1,6,21,1,1,340.46,wordex3.png
8,1,6,22,1,1,517.19,wordin7.png
8,1,6,23,2,1,638.03,wordex2_8.png
8,1,6,24,1,1,622.78,wordex5.png
8,1,7,1,2,1,467.24,wordin2_11.png
8,1,7,2,1,1,548.01,wordin7.png
8,1,7,3,1,1,500.8,wordin2_8.png
8,1,7,4,2,1,485.55,wordex2_1.png
8,1,7,5,2,1,654.37,wordex2_9.png
8,1,7,6,1,1,671.13,wordin11.png
8,1,7,7,1,1,567.89,wordin2_12.png
8,1,7,8,1,1,456.75,wordex6.png
8,1,7,9,1,1,505.52,wordex8.png
8,1,7,10,2,1,538.26,wordex2_8.png
8,1,7,11,2,1,483.1,wordin2_5.png
8,1,7,12,1,1,627.84,wordex2_4.png
8,1,7,13,1,1,500.61,wordin2_10.png
8,1,7,14,1,1,1245.46,wordin9.png
8,1,7,15,1,1,334.24,wordin10.png
8,1,7,16,1,1,502.99,wordex2_5.png
8,1,7,17,1,1,335.79,wordex10.png
8,1,7,18,1,1,304.55,wordex2_3.png
8,1,7,19,1,1,1.39,wordin2_1.png
8,1,7,20,1,1,658.15,wordin2.png
8,1,7,21,1,1,210.93,wordex3.png
8,1,7,22,1,1,107.72,wordex5.png
8,1,7,23,1,1,460.44,wordin2_9.png
8,1,7,24,1,1,221.23,wordin2_4.png
8,1,8,1,1,1,268.36,wordex6.png
8,1,8,2,1,1,101.16,wordin2_10.png
8,1,8,3,1,1,453.95,wordin2_11.png
8,1,8,4,1,1,142.71,wordex2_5.png
8,1,8,5,1,1,631.46,wordex3.png
8,1,8,6,1,1,168.28,wordin2_9.png
8,1,8,7,1,1,113.08,wordex10.png
8,1,8,8,1,1,497.87,wordex2_1.png
8,1,8,9,1,1,322.64,wordin2_5.png
8,1,8,10,2,1,195.37,wordex2_3.png
8,1,8,11,2,1,132.21,wordin2.png
8,1,8,12,1,1,212.97,wordin2_4.png
8,1,8,13,1,1,245.75,wordin9.png
8,1,8,14,1,1,446.57,wordex2_8.png
8,1,8,15,1,1,455.29,wordex8.png
8,1,8,16,1,1,8.09,wordin7.png
8,1,8,17,1,1,176.91,wordin2_8.png
8,1,8,18,1,1,1.71,wordex2_9.png
8,1,8,19,1,1,42.43,wordex5.png
8,1,8,20,1,1,299.27,wordin11.png
8,1,8,21,1,1,435.99,wordin10.png
8,1,8,22,2,1,60.83,wordin2_12.png
8,1,8,23,1,1,453.62,wordex2_4.png
8,1,8,24,2,1,310.4,wordin2_1.png
9,1,1,1,1,1,1374.8,wordin5.png
9,1,1,2,2,1,682.34,wordin2_7.png
9,1,1,3,2,1,1011.08,wordex9.png
9,1,1,4,1,1,739.89,wordin2_3.png
9,1,1,5,1,1,700.62,wordin2_6.png
9,1,1,6,1,1,669.44,wordex2_7.png
9,1,1,7,1,1,758.23,wordex2_6.png
9,1,1,8,1,1,1079.01,wordin6.png
9,1,1,9,2,1,607.82,wordin4.png
9,1,1,10,1,1,584.61,wordin2_2.png
9,1,1,11,2,1,921.33,wordex2_2.png
9,1,1,12,1,1,626.18,wordex12.png
9,1,1,13,2,1,794.94,wordin8.png
9,1,1,14,2,1,875.75,wordin1.png
9,1,1,15,1,1,764.48,wordex11.png
9,1,1,16,1,1,821.32,wordex7.png
9,1,1,17,1,1,590.07,wordin12.png
9,1,1,18,1,1,686.87,wordin3.png
9,1,1,19,2,1,823.65,wordex2.png
9,1,1,20,1,1,552.45,wordex2_11.png
9,1,1,21,1,1,801.24,wordex2_12.png
9,1,1,22,1,1,938.03,wordex2_10.png
9,1,1,23,1,1,682.75,wordex1.png
9,1,1,24,1,1,803.6,wordex4.png
9,1,2,1,1,1,772.57,wordin2_6.png
9,1,2,2,1,1,637.37,wordin12.png
9,1,2,3,1,1,590.17,wordin5.png
9,1,2,4,1,1,574.93,wordex12.png
9,1,2,5,0,0,0,wordex2_10.png
9,1,2,6,1,1,688.55,wordin2_2.png
9,1,2,7,2,1,841.32,wordex1.png
9,1,2,8,2,1,722.12,wordex2_2.png
9,1,2,9,1,1,594.86,wordex7.png
9,1,2,10,1,1,819.69,wordin8.png
9,1,2,11,1,1,708.47,wordin3.png
9,1,2,12,1,1,669.25,wordex4.png
9,1,2,13,1,1,822.05,wordin6.png
9,1,2,14,2,1,646.78,wordex9.png
9,1,2,15,1,1,615.61,wordin1.png
9,1,2,16,2,1,632.4,wordin2_3.png
9,1,2,17,1,1,1017.16,wordex11.png
9,1,2,18,1,1,665.97,wordin4.png
9,1,2,19,2,1,618.71,wordex2.png
9,1,2,20,1,1,923.54,wordin2_7.png
9,1,2,21,1,1,1020.31,wordex2_12.png
9,1,2,22,1,1,597.11,wordex2_11.png
9,1,2,23,2,1,693.88,wordex2_7.png
9,1,2,24,1,1,750.68,wordex2_6.png
9,1,3,1,1,1,542.06,wordex12.png
9,1,3,2,2,1,646.88,wordex2.png
9,1,3,3,1,1,607.62,wordin2_7.png
9,1,3,4,2,1,768.46,wordin6.png
9,1,3,5,2,1,529.24,wordex2_2.png
9,1,3,6,1,1,498.03,wordin12.png
9,1,3,7,1,1,922.76,wordex11.png
9,1,3,8,1,1,459.58,wordex7.png
9,1,3,9,1,1,452.38,wordex2_6.png
9,1,3,10,1,1,621.12,wordex2_12.png
9,1,3,11,2,1,685.89,wordex2_10.png
9,1,3,12,1,1,614.68,wordin3.png
9,1,3,13,1,1,679.5,wordin2_2.png
9,1,3,14,1,1,464.29,wordin4.png
9,1,3,15,2,1,545.06,wordex9.png
9,1,3,16,1,1,553.82,wordin8.png
9,1,3,17,2,1,578.61,wordex1.png
9,1,3,18,1,1,579.45,wordex2_7.png
9,1,3,19,1,1,428.23,wordin2_3.png
9,1,3,20,1,1,501.02,wordex2_11.png
9,1,3,21,2,1,621.75,wordin2_6.png
9,1,3,22,1,1,518.53,wordin1.png
9,1,3,23,1,1,791.38,wordin5.png
9,1,3,24,1,1,560.15,wordex4.png
9,1,4,1,2,1,588.24,wordin1.png
9,1,4,2,2,1,829.08,wordex1.png
9,1,4,3,1,1,997.86,wordex4.png
9,1,4,4,1,1,798.66,wordin2_7.png
9,1,4,5,1,1,495.44,wordex7.png
9,1,4,6,1,1,384.22,wordex9.png
9,1,4,7,1,1,513.01,wordex2_7.png
9,1,4,8,1,1,649.8,wordin8.png
9,1,4,9,1,1,722.56,wordex2_11.png
9,1,4,10,1,1,779.34,wordin4.png
9,1,4,11,2,1,764.1,wordin2_6.png
9,1,4,12,2,1,716.93,wordex2_10.png
9,1,4,13,0,0,0,wordex2_12.png
9,1,4,14,2,1,758.49,wordin2_2.png
9,1,4,15,1,1,743.29,wordin3.png
9,1,4,16,2,1,560.07,wordex2.png
9,1,4,17,1,1,544.8,wordin12.png
9,1,4,18,1,1,961.57,wordex2_2.png
9,1,4,19,1,1,746.41,wordex11.png
9,1,4,20,1,1,707.16,wordin2_3.png
9,1,4,21,0,0,0,wordex12.png
9,1,4,22,1,1,556.76,wordin5.png
9,1,4,23,1,1,453.55,wordin6.png
9,1,4,24,1,1,678.36,wordex2_6.png
9,1,5,1,1,1,652.73,wordex2_10.png
9,1,5,2,2,1,541.53,wordex2.png
9,1,5,3,2,1,582.27,wordex9.png
9,1,5,4,1,1,423.1,wordin12.png
9,1,5,5,1,1,383.89,wordin2_3.png
9,1,5,6,2,1,536.6,wordin1.png
9,1,5,7,1,1,761.47,wordex2_6.png
9,1,5,8,1,1,802.21,wordex4.png
9,1,5,9,1,1,403.02,wordex12.png
9,1,5,10,1,1,571.81,wordin3.png
9,1,5,11,2,1,780.54,wordex1.png
9,1,5,12,2,1,573.31,wordex2_2.png
9,1,5,13,1,1,814.16,wordin2_6.png
9,1,5,14,1,1,694.95,wordex2_11.png
9,1,5,15,1,1,1103.72,wordin5.png
9,1,5,16,1,1,368.47,wordex7.png
9,1,5,17,2,1,569.31,wordin6.png
9,1,5,18,1,1,546.05,wordex2_7.png
9,1,5,19,1,1,826.84,wordin2_2.png
9,1,5,20,1,1,515.66,wordin8.png
9,1,5,21,1,1,788.45,wordin4.png
9,1,5,22,2,1,533.23,wordin2_7.png
9,1,5,23,1,1,518,wordex2_12.png
9,1,5,24,1,1,622.79,wordex11.png
9,1,6,1,1,1,504.32,wordex7.png
9,1,6,2,1,1,497.18,wordin2_3.png
9,1,6,3,1,1,425.93,wordin2_6.png
9,1,6,4,1,1,490.73,wordex2_10.png
9,1,6,5,1,1,491.53,wordin8.png
9,1,6,6,1,1,412.26,wordex2_7.png
9,1,6,7,1,1,381.11,wordex2_6.png
9,1,6,8,1,1,445.84,wordin4.png
9,1,6,9,1,1,366.64,wordin12.png
9,1,6,10,1,1,751.4,wordin1.png
9,1,6,11,1,1,448.18,wordin2_7.png
9,1,6,12,1,1,497.03,wordex12.png
9,1,6,13,2,1,665.82,wordex2_2.png
9,1,6,14,2,1,498.56,wordex1.png
9,1,6,15,1,1,699.32,wordin5.png
9,1,6,16,2,1,708.14,wordex9.png
9,1,6,17,1,1,580.95,wordex4.png
9,1,6,18,1,1,749.66,wordin2_2.png
9,1,6,19,0,0,0,wordin6.png
9,1,6,20,1,1,567.27,wordin3.png
9,1,6,21,1,1,904.09,wordex2_12.png
9,1,6,22,1,1,448.84,wordex2_11.png
9,1,6,23,1,1,657.66,wordex11.png
9,1,6,24,1,1,554.45,wordex2.png
9,1,7,1,1,1,515.69,wordin4.png
9,1,7,2,1,1,428.56,wordin3.png
9,1,7,3,1,1,509.34,wordin8.png
9,1,7,4,2,1,470.13,wordex2.png
9,1,7,5,1,1,590.89,wordin1.png
9,1,7,6,1,1,583.69,wordin2_6.png
9,1,7,7,1,1,888.46,wordex2_12.png
9,1,7,8,2,1,1001.23,wordex9.png
9,1,7,9,1,1,562.05,wordex11.png
9,1,7,10,1,1,890.76,wordin2_7.png
9,1,7,11,1,1,563.56,wordex7.png
9,1,7,12,1,1,572.41,wordex12.png
9,1,7,13,1,1,509.13,wordex4.png
9,1,7,14,1,1,525.96,wordex2_7.png
9,1,7,15,2,1,550.72,wordex2_2.png
9,1,7,16,1,1,463.49,wordin2_3.png
9,1,7,17,1,1,672.33,wordex2_11.png
9,1,7,18,1,1,649.11,wordin12.png
9,1,7,19,2,1,609.9,wordex1.png
9,1,7,20,1,1,562.67,wordex2_6.png
9,1,7,21,2,1,723.47,wordin6.png
9,1,7,22,0,0,0,wordin2_2.png
9,1,7,23,1,1,983.72,wordex2_10.png
9,1,7,24,1,1,752.47,wordin5.png
9,1,8,1,1,1,581.52,wordin2_3.png
9,1,8,2,2,1,630.34,wordex1.png
9,1,8,3,1,1,1007.1,wordex11.png
9,1,8,4,1,1,487.91,wordex2_6.png
9,1,8,5,1,1,688.64,wordin5.png
9,1,8,6,2,1,529.48,wordex9.png
9,1,8,7,2,1,554.22,wordin6.png
9,1,8,8,1,1,459.05,wordex12.png
9,1,8,9,1,1,483.83,wordin12.png
9,1,8,10,1,1,732.62,wordin1.png
9,1,8,11,1,1,525.35,wordex2_11.png
9,1,8,12,2,1,542.15,wordex2_2.png
9,1,8,13,1,1,478.97,wordex7.png
9,1,8,14,1,1,655.72,wordin4.png
9,1,8,15,2,1,480.54,wordex2.png
9,1,8,16,1,1,513.27,wordin3.png
9,1,8,17,1,1,554.05,wordin2_2.png
9,1,8,18,1,1,570.87,wordin8.png
9,1,8,19,1,1,523.61,wordex2_7.png
9,1,8,20,1,1,540.43,wordex2_12.png
9,1,8,21,1,1,453.24,wordex4.png
9,1,8,22,1,1,470.04,wordin2_7.png
9,1,8,23,1,1,854.77,wordex2_10.png
9,1,8,24,2,1,719.54,wordin2_6.png
10,1,1,1,0,0,0,wordin8.png
10,1,1,2,1,1,93.01,wordex2_3.png
10,1,1,3,1,1,557.77,wordin2_9.png
10,1,1,4,2,1,1086.55,wordin6.png
10,1,1,5,1,1,503.34,wordex6.png
10,1,1,6,1,1,528.11,wordin5.png
10,1,1,7,1,1,496.89,wordex2_12.png
10,1,1,8,1,1,793.68,wordin2.png
10,1,1,9,1,1,610.47,wordex2_4.png
10,1,1,10,2,1,475.25,wordex2_10.png
10,1,1,11,2,1,612.04,wordin10.png
10,1,1,12,1,1,812.85,wordex2_2.png
10,1,1,13,1,1,581.59,wordex2.png
10,1,1,14,1,1,558.37,wordex2_6.png
10,1,1,15,2,1,591.14,wordex9.png
10,1,1,16,1,1,663.93,wordex7.png
10,1,1,17,1,1,576.72,wordin2_2.png
10,1,1,18,2,1,505.53,wordex2_8.png
10,1,1,19,1,1,722.27,wordex8.png
10,1,1,20,2,1,491.03,wordin2_1.png
10,1,1,21,2,1,531.89,wordex2_5.png
10,1,1,22,2,1,532.63,wordin3.png
10,1,1,23,2,1,613.42,wordin7.png
10,1,1,24,1,1,646.16,wordin9.png
10,1,2,1,2,1,842.01,wordex9.png
10,1,2,2,2,1,594.83,wordin3.png
10,1,2,3,2,1,619.61,wordin10.png
10,1,2,4,2,1,644.38,wordex2_5.png
10,1,2,5,1,1,749.23,wordin8.png
10,1,2,6,2,1,925.96,wordin5.png
10,1,2,7,1,1,670.79,wordex2_6.png
10,1,2,8,2,1,655.57,wordin7.png
10,1,2,9,1,1,616.36,wordex2_2.png
10,1,2,10,2,1,697.11,wordex2_10.png
10,1,2,11,0,0,0,wordex7.png
10,1,2,12,2,1,714.69,wordex2_8.png
10,1,2,13,1,1,595.49,wordin2_2.png
10,1,2,14,1,1,612.27,wordex2_4.png
10,1,2,15,2,1,877,wordex2.png
10,1,2,16,1,1,597.84,wordin2.png
10,1,2,17,1,1,550.58,wordex6.png
10,1,2,18,1,1,663.4,wordex8.png
10,1,2,19,2,1,664.18,wordin6.png
10,1,2,20,1,1,600.92,wordex2_3.png
10,1,2,21,1,1,577.69,wordin9.png
10,1,2,22,1,1,522.53,wordin2_9.png
10,1,2,23,1,1,587.27,wordex2_12.png
10,1,2,24,2,1,604.1,wordin2_1.png
10,1,3,1,1,1,554.27,wordex8.png
10,1,3,2,2,1,578.99,wordex2_5.png
10,1,3,3,2,1,579.83,wordin3.png
10,1,3,4,1,1,564.59,wordin2_2.png
10,1,3,5,2,1,565.4,wordin7.png
10,1,3,6,1,1,470.13,wordex2_3.png
10,1,3,7,2,1,590.96,wordin10.png
10,1,3,8,1,1,559.71,wordin5.png
10,1,3,9,1,1,576.53,wordex7.png
10,1,3,10,2,1,649.28,wordin6.png
10,1,3,11,1,1,546.07,wordin9.png
10,1,3,12,1,1,562.81,wordex2_12.png
10,1,3,13,1,1,651.66,wordex2_4.png
10,1,3,14,2,1,564.41,wordin2_1.png
10,1,3,15,2,1,669.22,wordex2_10.png
10,1,3,16,1,1,517.95,wordex6.png
10,1,3,17,1,1,670.79,wordex2.png
10,1,3,18,1,1,567.57,wordex2_2.png
10,1,3,19,1,1,592.36,wordin8.png
10,1,3,20,2,1,585.09,wordex9.png
10,1,3,21,2,1,633.92,wordex2_8.png
10,1,3,22,1,1,570.66,wordin2_9.png
10,1,3,23,1,1,531.5,wordin2.png
10,1,3,24,1,1,668.21,wordex2_6.png
10,1,4,1,1,1,513.21,wordex7.png
10,1,4,2,1,1,586.08,wordex6.png
10,1,4,3,1,1,562.86,wordex2_12.png
10,1,4,4,2,1,563.58,wordin3.png
10,1,4,5,1,1,500.4,wordin2_2.png
10,1,4,6,2,1,685.21,wordin10.png
10,1,4,7,2,1,573.96,wordex9.png
10,1,4,8,1,1,510.77,wordex2_2.png
10,1,4,9,1,1,767.55,wordex8.png
10,1,4,10,1,1,744.32,wordin2_9.png
10,1,4,11,2,1,569.07,wordex2_5.png
10,1,4,12,2,1,561.88,wordex2_10.png
10,1,4,13,1,1,666.69,wordin8.png
10,1,4,14,1,1,779.44,wordex2.png
10,1,4,15,2,1,540.25,wordex2_8.png
10,1,4,16,1,1,565.04,wordin9.png
10,1,4,17,1,1,717.75,wordex2_6.png
10,1,4,18,2,1,598.59,wordin7.png
10,1,4,19,2,1,559.38,wordin2_1.png
10,1,4,20,1,1,552.15,wordin2.png
10,1,4,21,1,1,528.9,wordex2_4.png
10,1,4,22,2,1,681.68,wordin6.png
10,1,4,23,1,1,458.49,wordex2_3.png
10,1,4,24,1,1,515.26,wordin5.png
10,1,5,1,1,1,659.14,wordin8.png
10,1,5,2,1,1,475.99,wordex8.png
10,1,5,3,1,1,524.79,wordex2_3.png
10,1,5,4,2,1,565.57,wordin7.png
10,1,5,5,1,1,534.36,wordin2_2.png
10,1,5,6,2,1,559.09,wordex9.png
10,1,5,7,1,1,471.87,wordex2_12.png
10,1,5,8,1,1,344.71,wordin2_9.png
10,1,5,9,1,1,441.49,wordex2_4.png
10,1,5,10,2,1,490.27,wordin6.png
10,1,5,11,2,1,587,wordin2_1.png
10,1,5,12,1,1,459.81,wordin2.png
10,1,5,13,2,1,540.62,wordex2_8.png
10,1,5,14,2,1,533.34,wordex2_5.png
10,1,5,15,1,1,678.16,wordex6.png
10,1,5,16,1,1,502.97,wordin5.png
10,1,5,17,1,1,471.75,wordex2_2.png
10,1,5,18,1,1,568.47,wordex2_6.png
10,1,5,19,2,1,545.24,wordex2.png
10,1,5,20,1,1,434.04,wordex2_10.png
10,1,5,21,1,1,482.83,wordin9.png
10,1,5,22,2,1,571.62,wordin3.png
10,1,5,23,1,1,580.41,wordex7.png
10,1,5,24,2,1,661.21,wordin10.png
10,1,6,1,2,1,587.34,wordex2_5.png
10,1,6,2,2,1,548.12,wordin10.png
10,1,6,3,1,1,476.89,wordex2_2.png
10,1,6,4,2,1,573.69,wordin3.png
10,1,6,5,1,1,494.47,wordex2_4.png
10,1,6,6,1,1,535.24,wordex7.png
10,1,6,7,1,1,552.04,wordin2_2.png
10,1,6,8,1,1,528.78,wordin2_9.png
10,1,6,9,1,1,633.6,wordex2_6.png
10,1,6,10,2,1,578.36,wordin7.png
10,1,6,11,1,1,603.11,wordex6.png
10,1,6,12,2,1,571.91,wordin2_1.png
10,1,6,13,1,1,548.72,wordin2.png
10,1,6,14,2,1,501.46,wordex2_10.png
10,1,6,15,2,1,654.3,wordex2_8.png
10,1,6,16,2,1,887.09,wordin6.png
10,1,6,17,1,1,871.82,wordex2.png
10,1,6,18,2,1,576.58,wordex9.png
10,1,6,19,1,1,625.38,wordin5.png
10,1,6,20,1,1,674.19,wordex8.png
10,1,6,21,1,1,530.97,wordex2_3.png
10,1,6,22,1,1,547.73,wordex2_12.png
10,1,6,23,1,1,484.51,wordin8.png
10,1,6,24,1,1,469.34,wordin9.png
10,1,7,1,2,1,877.29,wordin6.png
10,1,7,2,2,1,550.13,wordin10.png
10,1,7,3,1,1,598.91,wordin8.png
10,1,7,4,2,1,551.7,wordex2_8.png
10,1,7,5,1,1,552.43,wordin2_2.png
10,1,7,6,1,1,585.26,wordin2.png
10,1,7,7,1,1,626,wordex6.png
10,1,7,8,2,1,602.8,wordin7.png
10,1,7,9,1,1,683.61,wordex2.png
10,1,7,10,1,1,748.33,wordin5.png
10,1,7,11,1,1,469.17,wordex2_12.png
10,1,7,12,1,1,549.96,wordex2_2.png
10,1,7,13,2,1,638.68,wordex2_5.png
10,1,7,14,1,1,615.51,wordex7.png
10,1,7,15,2,1,528.31,wordex9.png
10,1,7,16,1,1,521.03,wordin9.png
10,1,7,17,1,1,801.83,wordin2_9.png
10,1,7,18,2,1,522.59,wordex2_10.png
10,1,7,19,2,1,595.42,wordin2_1.png
10,1,7,20,1,1,556.22,wordex2_4.png
10,1,7,21,1,1,533.01,wordex2_6.png
10,1,7,22,1,1,493.72,wordex2_3.png
10,1,7,23,2,1,558.55,wordin3.png
10,1,7,24,1,1,495.35,wordex8.png
10,1,8,1,2,1,532.86,wordin3.png
10,1,8,2,2,1,453.63,wordex9.png
10,1,8,3,1,1,558.37,wordin5.png
10,1,8,4,1,1,583.19,wordex2.png
10,1,8,5,1,1,543.95,wordex2_2.png
10,1,8,6,2,1,520.68,wordin10.png
10,1,8,7,1,1,537.5,wordex2_6.png
10,1,8,8,2,1,546.28,wordin2_1.png
10,1,8,9,1,1,515.07,wordex2_3.png
10,1,8,10,2,1,515.89,wordex2_10.png
10,1,8,11,1,1,556.62,wordex7.png
10,1,8,12,2,1,701.43,wordex2_5.png
10,1,8,13,1,1,518.23,wordin8.png
10,1,8,14,2,1,606.97,wordin7.png
10,1,8,15,1,1,399.8,wordex8.png
10,1,8,16,1,1,448.58,wordin2_2.png
10,1,8,17,1,1,465.35,wordin2_9.png
10,1,8,18,1,1,578.15,wordex2_4.png
10,1,8,19,1,1,562.93,wordex2_12.png
10,1,8,20,1,1,595.72,wordin2.png
10,1,8,21,1,1,396.5,wordin9.png
10,1,8,22,1,1,437.28,wordex6.png
10,1,8,23,1,1,486.06,wordin6.png
10,1,8,24,2,1,470.79,wordex2_8.png
11,1,1,1,1,1,967.91,wordin2_7.png
11,1,1,2,1,1,950.08,wordin1.png
11,1,1,3,1,1,774.82,wordex2_1.png
11,1,1,4,2,1,959.67,wordin2_11.png
11,1,1,5,1,1,1104.42,wordex4.png
11,1,1,6,1,1,593.21,wordex10.png
11,1,1,7,1,1,473.99,wordin2_4.png
11,1,1,8,1,1,514.8,wordex1.png
11,1,1,9,1,1,595.58,wordin12.png
11,1,1,10,1,1,596.38,wordex11.png
11,1,1,11,1,1,663.78,wordin2_5.png
11,1,1,12,1,1,552.61,wordex2_11.png
11,1,1,13,1,1,721.35,wordex12.png
11,1,1,14,2,1,810.15,wordin11.png
11,1,1,15,1,1,714.99,wordin2_10.png
11,1,1,16,1,1,635.72,wordin4.png
11,1,1,17,1,1,852.5,wordex2_7.png
11,1,1,18,2,1,621.36,wordin2_12.png
11,1,1,19,1,1,494.1,wordin2_3.png
11,1,1,20,1,1,630.85,wordex2_9.png
11,1,1,21,1,1,495.71,wordex3.png
11,1,1,22,1,1,480.5,wordin2_6.png
11,1,1,23,1,1,489.29,wordin2_8.png
11,1,1,24,1,1,490.07,wordex5.png
11,1,2,1,1,1,557.06,wordin2_12.png
11,1,2,2,1,1,430.08,wordin4.png
11,1,2,3,1,1,446.68,wordin2_7.png
11,1,2,4,1,1,679.46,wordex2_9.png
11,1,2,5,1,1,512.24,wordin2_3.png
11,1,2,6,1,1,513.03,wordex2_11.png
11,1,2,7,1,1,601.82,wordin2_10.png
11,1,2,8,1,1,538.58,wordin2_8.png
11,1,2,9,1,1,883.39,wordin2_4.png
11,1,2,10,1,1,556.18,wordex2_7.png
11,1,2,11,1,1,476.76,wordin2_5.png
11,1,2,12,1,1,565.7,wordin11.png
11,1,2,13,1,1,542.54,wordin2_6.png
11,1,2,14,1,1,455.3,wordin12.png
11,1,2,15,1,1,576.09,wordex10.png
11,1,2,16,1,1,488.85,wordex11.png
11,1,2,17,1,1,585.63,wordex3.png
11,1,2,18,1,1,322.41,wordex5.png
11,1,2,19,1,1,475.26,wordex12.png
11,1,2,20,1,1,430.69,wordex2_1.png
11,1,2,21,2,1,887.51,wordin2_11.png
11,1,2,22,1,1,344.29,wordin1.png
11,1,2,23,1,1,409.04,wordex1.png
11,1,2,24,1,1,593.84,wordex4.png
11,1,3,1,1,1,553.46,wordex12.png
11,1,3,2,1,1,522.32,wordin2_5.png
11,1,3,3,1,1,451.14,wordin2_3.png
11,1,3,4,1,1,563.86,wordin2_10.png
11,1,3,5,1,1,404.69,wordex1.png
11,1,3,6,2,1,589.42,wordex2_9.png
11,1,3,7,1,1,214.26,wordin2_7.png
11,1,3,8,1,1,262.99,wordex10.png
11,1,3,9,1,1,295.82,wordin11.png
11,1,3,10,1,1,264.62,wordin2_6.png
11,1,3,11,1,1,257.4,wordex2_1.png
11,1,3,12,1,1,242.19,wordex4.png
11,1,3,13,1,1,194.98,wordin4.png
11,1,3,14,1,1,259.7,wordin2_4.png
11,1,3,15,1,1,228.53,wordex2_7.png
11,1,3,16,1,1,205.34,wordex3.png
11,1,3,17,1,1,358.06,wordin1.png
11,1,3,18,1,1,558.88,wordex5.png
11,1,3,19,1,1,551.69,wordin12.png
11,1,3,20,1,1,304.46,wordin2_8.png
11,1,3,21,1,1,369.26,wordex11.png
11,1,3,22,1,1,370.05,wordex2_11.png
11,1,3,23,1,1,650.8,wordin2_11.png
11,1,3,24,1,1,707.57,wordin2_12.png
11,1,4,1,1,1,691.28,wordin2_3.png
11,1,4,2,1,1,516.1,wordin2_8.png
11,1,4,3,1,1,311.56,wordin12.png
11,1,4,4,1,1,232.34,wordin2_4.png
11,1,4,5,1,1,393.17,wordex3.png
11,1,4,6,1,1,257.92,wordin2_11.png
11,1,4,7,1,1,458.67,wordex2_11.png
11,1,4,8,1,1,515.53,wordex1.png
11,1,4,9,1,1,716.31,wordin2_12.png
11,1,4,10,1,1,317.04,wordex10.png
11,1,4,11,1,1,469.89,wordex11.png
11,1,4,12,1,1,518.63,wordex2_1.png
11,1,4,13,1,1,415.44,wordin1.png
11,1,4,14,1,1,592.23,wordin11.png
11,1,4,15,1,1,569,wordin4.png
11,1,4,16,1,1,545.81,wordex12.png
11,1,4,17,2,1,858.56,wordex2_9.png
11,1,4,18,1,1,427.37,wordex2_7.png
11,1,4,19,1,1,404.16,wordex5.png
11,1,4,20,1,1,292.93,wordin2_5.png
11,1,4,21,1,1,557.74,wordin2_10.png
11,1,4,22,1,1,550.47,wordin2_6.png
11,1,4,23,1,1,695.29,wordin2_7.png
11,1,4,24,1,1,616.1,wordex4.png
11,1,5,1,2,1,761.92,wordin2_11.png
11,1,5,2,1,1,258.7,wordin2_3.png
11,1,5,3,1,1,211.49,wordex12.png
11,1,5,4,1,1,252.23,wordex4.png
11,1,5,5,1,1,373.03,wordin11.png
11,1,5,6,1,1,293.82,wordin2_12.png
11,1,5,7,1,1,582.58,wordex10.png
11,1,5,8,1,1,327.4,wordin1.png
11,1,5,9,1,1,312.17,wordex1.png
11,1,5,10,1,1,328.99,wordex2_7.png
11,1,5,11,1,1,297.77,wordin4.png
11,1,5,12,1,1,322.53,wordin12.png
11,1,5,13,1,1,571.31,wordex3.png
11,1,5,14,1,1,676.13,wordin2_7.png
11,1,5,15,1,1,668.86,wordin2_8.png
11,1,5,16,1,1,293.7,wordin2_10.png
11,1,5,17,1,1,654.46,wordex2_11.png
11,1,5,18,1,1,647.25,wordex2_1.png
11,1,5,19,1,1,488,wordex5.png
11,1,5,20,2,1,488.84,wordex2_9.png
11,1,5,21,1,1,297.6,wordin2_4.png
11,1,5,22,1,1,306.38,wordin2_5.png
11,1,5,23,1,1,451.17,wordex11.png
11,1,5,24,1,1,259.98,wordin2_6.png
11,1,6,1,2,1,611.12,wordex2_9.png
11,1,6,2,1,1,275.84,wordin2_5.png
11,1,6,3,1,1,132.69,wordin2_12.png
11,1,6,4,1,1,117.47,wordex2_11.png
11,1,6,5,1,1,262.26,wordex2_7.png
11,1,6,6,1,1,126.99,wordin2_11.png
11,1,6,7,1,1,199.82,wordex12.png
11,1,6,8,1,1,248.58,wordin2_6.png
11,1,6,9,1,1,297.39,wordex10.png
11,1,6,10,1,1,306.18,wordin2_8.png
11,1,6,11,1,1,474.9,wordin2_10.png
11,1,6,12,1,1,323.75,wordin1.png
11,1,6,13,1,1,236.53,wordex4.png
11,1,6,14,1,1,269.32,wordex2_1.png
11,1,6,15,1,1,294.06,wordex11.png
11,1,6,16,1,1,454.88,wordin11.png
11,1,6,17,1,1,383.67,wordex1.png
11,1,6,18,1,1,312.44,wordin2_3.png
11,1,6,19,1,1,545.22,wordin12.png
11,1,6,20,1,1,530.02,wordin4.png
11,1,6,21,1,1,522.8,wordex3.png
11,1,6,22,1,1,531.55,wordin2_7.png
11,1,6,23,1,1,276.38,wordex5.png
11,1,6,24,1,1,373.14,wordin2_4.png
11,1,7,1,0,0,0,wordin2_11.png
11,1,7,2,1,1,266.45,wordin2_5.png
11,1,7,3,1,1,187.17,wordin12.png
11,1,7,4,1,1,228.02,wordex2_9.png
11,1,7,5,1,1,260.75,wordex2_1.png
11,1,7,6,1,1,301.55,wordin2_10.png
11,1,7,7,1,1,534.36,wordex4.png
11,1,7,8,1,1,599.1,wordex11.png
11,1,7,9,1,1,551.89,wordex2_11.png
11,1,7,10,1,1,272.68,wordin11.png
11,1,7,11,1,1,465.47,wordin2_7.png
11,1,7,12,1,1,402.24,wordin2_3.png
11,1,7,13,1,1,323.02,wordex2_7.png
11,1,7,14,1,1,451.87,wordex1.png
11,1,7,15,1,1,716.59,wordex12.png
11,1,7,16,1,1,765.44,wordin4.png
11,1,7,17,1,1,750.17,wordex10.png
11,1,7,18,1,1,782.99,wordin1.png
11,1,7,19,1,1,1071.76,wordex5.png
11,1,7,20,1,1,928.57,wordin2_4.png
11,1,7,21,1,1,649.35,wordin2_8.png
11,1,7,22,1,1,722.15,wordin2_6.png
11,1,7,23,1,1,538.93,wordex3.png
11,1,7,24,1,1,507.71,wordin2_12.png
11,1,8,1,1,1,346.48,wordex5.png
11,1,8,2,1,1,251.27,wordin12.png
11,1,8,3,1,1,332,wordin2_6.png
11,1,8,4,1,1,356.79,wordin2_11.png
11,1,8,5,1,1,285.63,wordex3.png
11,1,8,6,1,1,446.36,wordin2_4.png
11,1,8,7,1,1,407.2,wordin2_3.png
11,1,8,8,1,1,607.89,wordin4.png
11,1,8,9,1,1,520.75,wordin1.png
11,1,8,10,1,1,569.54,wordin2_8.png
11,1,8,11,1,1,610.28,wordin11.png
11,1,8,12,1,1,675.06,wordex1.png
11,1,8,13,1,1,747.86,wordex4.png
11,1,8,14,1,1,716.7,wordin2_10.png
11,1,8,15,2,1,789.47,wordex2_9.png
11,1,8,16,1,1,302.26,wordex11.png
11,1,8,17,1,1,255.04,wordin2_12.png
11,1,8,18,1,1,271.83,wordex2_11.png
11,1,8,19,1,1,312.61,wordex10.png
11,1,8,20,1,1,553.4,wordex2_1.png
11,1,8,21,1,1,354.18,wordex12.png
11,1,8,22,1,1,234.91,wordin2_5.png
11,1,8,23,1,1,243.69,wordex2_7.png
11,1,8,24,1,1,308.54,wordin2_7.png
12,1,1,1,2,1,1352.17,wordex2_3.png
12,1,1,2,1,1,587.64,wordex2_12.png
12,1,1,3,2,1,812.42,wordin3.png
12,1,1,4,1,1,509.24,wordin9.png
12,1,1,5,1,1,654,wordex2_10.png
12,1,1,6,1,1,862.79,wordex2_2.png
12,1,1,7,2,1,783.6,wordex8.png
12,1,1,8,1,1,568.32,wordex2_8.png
12,1,1,9,2,1,753.1,wordin10.png
12,1,1,10,1,1,745.92,wordin2_2.png
12,1,1,11,1,1,637.36,wordex2_4.png
12,1,1,12,1,1,646.15,wordin5.png
12,1,1,13,1,1,678.93,wordex7.png
12,1,1,14,1,1,567.75,wordin2_9.png
12,1,1,15,1,1,800.47,wordin2.png
12,1,1,16,2,1,681.27,wordex9.png
12,1,1,17,2,1,522.03,wordin8.png
12,1,1,18,2,1,626.81,wordin7.png
12,1,1,19,1,1,595.63,wordex2_6.png
12,1,1,20,2,1,580.4,wordin6.png
12,1,1,21,1,1,477.19,wordin2_1.png
12,1,1,22,2,1,510.01,wordex2.png
12,1,1,23,2,1,526.79,wordex2_5.png
12,1,1,24,1,1,527.59,wordex6.png
12,1,2,1,1,1,472.44,wordin9.png
12,1,2,2,1,1,729.19,wordex2_2.png
12,1,2,3,1,1,633.98,wordex2_6.png
12,1,2,4,2,1,626.8,wordex2_5.png
12,1,2,5,1,1,651.6,wordex2_8.png
12,1,2,6,1,1,548.38,wordin2_2.png
12,1,2,7,1,1,589.12,wordin5.png
12,1,2,8,1,1,605.95,wordin3.png
12,1,2,9,2,1,758.68,wordex2_3.png
12,1,2,10,2,1,639.51,wordex8.png
12,1,2,11,2,1,536.24,wordex9.png
12,1,2,12,1,1,545.04,wordin2_9.png
12,1,2,13,1,1,529.82,wordex2_10.png
12,1,2,14,2,1,938.62,wordin7.png
12,1,2,15,1,1,499.41,wordex2_4.png
12,1,2,16,2,1,604.16,wordex2.png
12,1,2,17,1,1,621.01,wordin8.png
12,1,2,18,1,1,485.76,wordex2_12.png
12,1,2,19,1,1,510.57,wordin2.png
12,1,2,20,2,1,527.32,wordin10.png
12,1,2,21,1,1,496.14,wordin2_1.png
12,1,2,22,1,1,496.92,wordex6.png
12,1,2,23,1,1,473.65,wordex7.png
12,1,2,24,2,1,554.48,wordin6.png
12,1,3,1,1,1,548.65,wordin2_9.png
12,1,3,2,1,1,437.4,wordin2_1.png
12,1,3,3,1,1,774.16,wordex2_2.png
12,1,3,4,1,1,478.99,wordex2_12.png
12,1,3,5,1,1,551.71,wordin2_2.png
12,1,3,6,1,1,472.56,wordin9.png
12,1,3,7,1,1,537.31,wordex2_4.png
12,1,3,8,1,1,466.09,wordex2_8.png
12,1,3,9,2,1,674.91,wordin7.png
12,1,3,10,1,1,787.7,wordin5.png
12,1,3,11,2,1,668.48,wordin8.png
12,1,3,12,2,1,461.26,wordex8.png
12,1,3,13,1,1,486.05,wordin2.png
12,1,3,14,2,1,558.82,wordex2_5.png
12,1,3,15,2,1,751.6,wordin3.png
12,1,3,16,2,1,552.33,wordex2_3.png
12,1,3,17,1,1,513.18,wordex7.png
12,1,3,18,2,1,545.96,wordin10.png
12,1,3,19,1,1,522.71,wordex6.png
12,1,3,20,1,1,507.53,wordex2_10.png
12,1,3,21,2,1,572.28,wordin6.png
12,1,3,22,2,1,509.03,wordex9.png
12,1,3,23,2,1,525.82,wordex2.png
12,1,3,24,1,1,542.67,wordex2_6.png
12,1,4,1,1,1,571.93,wordex6.png
12,1,4,2,1,1,476.71,wordex2_10.png
12,1,4,3,1,1,477.45,wordin2_9.png
12,1,4,4,1,1,494.28,wordex2_6.png
12,1,4,5,1,1,511.07,wordin2_2.png
12,1,4,6,2,1,615.84,wordin8.png
12,1,4,7,1,1,592.63,wordex2_4.png
12,1,4,8,1,1,489.41,wordin9.png
12,1,4,9,2,1,538.2,wordex2_3.png
12,1,4,10,2,1,546.98,wordex2_5.png
12,1,4,11,2,1,531.77,wordex9.png
12,1,4,12,2,1,548.52,wordex2_2.png
12,1,4,13,2,1,605.28,wordin3.png
12,1,4,14,2,1,598.07,wordex8.png
12,1,4,15,2,1,566.9,wordin6.png
12,1,4,16,1,1,551.69,wordin2.png
12,1,4,17,1,1,568.47,wordin2_1.png
12,1,4,18,1,1,473.19,wordex7.png
12,1,4,19,2,1,474.02,wordex2.png
12,1,4,20,2,1,530.82,wordin10.png
12,1,4,21,1,1,515.59,wordex2_12.png
12,1,4,22,1,1,548.36,wordex2_8.png
12,1,4,23,2,1,773.17,wordin7.png
12,1,4,24,1,1,1029.96,wordin5.png
12,1,5,1,2,1,559.98,wordex8.png
12,1,5,2,1,1,872.86,wordin7.png
12,1,5,3,2,1,713.64,wordin8.png
12,1,5,4,1,1,482.42,wordin2_2.png
12,1,5,5,1,1,443.2,wordex2_10.png
12,1,5,6,2,1,475.95,wordex2.png
12,1,5,7,1,1,476.73,wordin2_1.png
12,1,5,8,2,1,589.56,wordin3.png
12,1,5,9,2,1,598.34,wordin5.png
12,1,5,10,1,1,783.13,wordex2_2.png
12,1,5,11,1,1,439.89,wordex2_4.png
12,1,5,12,1,1,400.69,wordex7.png
12,1,5,13,1,1,433.47,wordin2.png
12,1,5,14,2,1,490.25,wordex2_3.png
12,1,5,15,2,1,699.03,wordin6.png
12,1,5,16,1,1,483.76,wordex6.png
12,1,5,17,1,1,428.61,wordin9.png
12,1,5,18,1,1,437.34,wordin2_9.png
12,1,5,19,1,1,454.18,wordex2_8.png
12,1,5,20,1,1,454.96,wordex2_12.png
12,1,5,21,2,1,503.75,wordex9.png
12,1,5,22,1,1,632.49,wordex2_6.png
12,1,5,23,2,1,569.25,wordin10.png
12,1,5,24,2,1,570.1,wordex2_5.png
12,1,6,1,1,1,524.09,wordex2_10.png
12,1,6,2,2,1,556.9,wordex2_3.png
12,1,6,3,1,1,453.66,wordex7.png
12,1,6,4,1,1,734.48,wordex2_2.png
12,1,6,5,2,1,583.26,wordex8.png
12,1,6,6,2,1,728,wordin5.png
12,1,6,7,2,1,568.82,wordin3.png
12,1,6,8,1,1,481.58,wordin2.png
12,1,6,9,1,1,482.39,wordin2_9.png
12,1,6,10,1,1,411.17,wordin2_1.png
12,1,6,11,2,1,587.93,wordin6.png
12,1,6,12,2,1,468.74,wordex9.png
12,1,6,13,2,1,565.51,wordin8.png
12,1,6,14,1,1,550.25,wordex2_6.png
12,1,6,15,1,1,471.1,wordex2_12.png
12,1,6,16,1,1,503.81,wordin2_2.png
12,1,6,17,2,1,568.66,wordex2.png
12,1,6,18,2,1,977.42,wordin7.png
12,1,6,19,1,1,506.22,wordex6.png
12,1,6,20,2,1,619.01,wordex2_5.png
12,1,6,21,2,1,563.75,wordin10.png
12,1,6,22,1,1,532.53,wordex2_8.png
12,1,6,23,1,1,349.34,wordin9.png
12,1,6,24,1,1,534.13,wordex2_4.png
12,1,7,1,1,1,467.08,wordex7.png
12,1,7,2,2,1,579.91,wordin5.png
12,1,7,3,2,1,516.69,wordex9.png
12,1,7,4,2,1,709.47,wordex2.png
12,1,7,5,1,1,494.24,wordin2_1.png
12,1,7,6,1,1,455.01,wordin2_2.png
12,1,7,7,2,1,583.84,wordex2_2.png
12,1,7,8,2,1,512.56,wordex8.png
12,1,7,9,2,1,593.35,wordin3.png
12,1,7,10,1,1,506.16,wordex2_12.png
12,1,7,11,1,1,546.97,wordin2_9.png
12,1,7,12,1,1,491.7,wordex2_4.png
12,1,7,13,2,1,556.54,wordin10.png
12,1,7,14,1,1,725.33,wordex2_8.png
12,1,7,15,2,1,678.11,wordin7.png
12,1,7,16,1,1,550.89,wordex2_10.png
12,1,7,17,1,1,487.68,wordex2_6.png
12,1,7,18,1,1,456.46,wordin8.png
12,1,7,19,2,1,537.24,wordin6.png
12,1,7,20,2,1,666.01,wordex2_5.png
12,1,7,21,1,1,498.76,wordin9.png
12,1,7,22,1,1,507.6,wordex6.png
12,1,7,23,2,1,588.36,wordex2_3.png
12,1,7,24,1,1,509.17,wordin2.png
12,1,8,1,2,1,537.78,wordin10.png
12,1,8,2,2,1,458.56,wordex2.png
12,1,8,3,1,1,475.34,wordin2_1.png
12,1,8,4,1,1,668.11,wordex2_6.png
12,1,8,5,2,1,653.18,wordin3.png
12,1,8,6,1,1,573.73,wordin2_2.png
12,1,8,7,2,1,542.48,wordex2_3.png
12,1,8,8,2,1,495.29,wordex9.png
12,1,8,9,2,1,456.06,wordex8.png
12,1,8,10,1,1,512.86,wordin2.png
12,1,8,11,1,1,489.6,wordex7.png
12,1,8,12,1,1,474.38,wordin9.png
12,1,8,13,1,1,459.21,wordex2_12.png
12,1,8,14,2,1,523.96,wordin6.png
12,1,8,15,2,1,724.72,wordin5.png
12,1,8,16,1,1,557.5,wordex2_4.png
12,1,8,17,1,1,502.35,wordex2_8.png
12,1,8,18,2,1,535.13,wordin8.png
12,1,8,19,2,1,575.9,wordex2_5.png
12,1,8,20,1,1,560.7,wordex2_10.png
12,1,8,21,1,1,433.4,wordin2_9.png
12,1,8,22,2,1,1058.27,wordin7.png
12,1,8,23,2,1,595.04,wordex2_2.png
12,1,8,24,1,1,595.82,wordex6.png
13,1,1,1,1,1,976.58,wordin2_4.png
13,1,1,2,1,1,1244.11,wordin2_7.png
13,1,1,3,1,1,588.84,wordin1.png
13,1,1,4,1,1,493.66,wordin2_3.png
13,1,1,5,1,1,502.4,wordin12.png
13,1,1,6,1,1,815.19,wordex1.png
13,1,1,7,1,1,591.99,wordin2_8.png
13,1,1,8,1,1,776.8,wordin2_10.png
13,1,1,9,2,1,681.59,wordin2_11.png
13,1,1,10,1,1,658.31,wordin4.png
13,1,1,11,1,1,547.09,wordex12.png
13,1,1,12,1,1,499.87,wordex2_1.png
13,1,1,13,2,1,692.65,wordin2_6.png
13,1,1,14,1,1,517.51,wordex3.png
13,1,1,15,1,1,542.29,wordex2_11.png
13,1,1,16,1,1,671.09,wordex2_9.png
13,1,1,17,1,1,567.82,wordex11.png
13,1,1,18,1,1,632.65,wordex4.png
13,1,1,19,1,1,513.42,wordin11.png
13,1,1,20,2,1,626.22,wordex2_7.png
13,1,1,21,1,1,523,wordin2_5.png
13,1,1,22,1,1,491.73,wordex5.png
13,1,1,23,1,1,428.55,wordex10.png
13,1,1,24,2,1,741.31,wordin2_12.png
13,1,2,1,1,1,651.39,wordin2_3.png
13,1,2,2,1,1,684.2,wordin1.png
13,1,2,3,1,1,581.03,wordex2_9.png
13,1,2,4,2,1,597.82,wordin2_12.png
13,1,2,5,1,1,630.59,wordin12.png
13,1,2,6,1,1,423.35,wordex3.png
13,1,2,7,1,1,424.14,wordex2_11.png
13,1,2,8,2,1,608.92,wordin2_6.png
13,1,2,9,1,1,361.72,wordex10.png
13,1,2,10,1,1,778.53,wordex2_7.png
13,1,2,11,1,1,467.32,wordex1.png
13,1,2,12,1,1,444.1,wordex12.png
13,1,2,13,1,1,468.86,wordex4.png
13,1,2,14,1,1,381.65,wordin2_8.png
13,1,2,15,1,1,406.43,wordin2_5.png
13,1,2,16,0,0,0,wordin2_7.png
13,1,2,17,1,1,375.98,wordex2_1.png
13,1,2,18,1,1,336.8,wordin2_10.png
13,1,2,19,1,1,265.53,wordin11.png
13,1,2,20,1,1,274.34,wordin2_4.png
13,1,2,21,1,1,339.16,wordex11.png
13,1,2,22,1,1,307.9,wordex5.png
13,1,2,23,1,1,540.73,wordin2_11.png
13,1,2,24,1,1,445.45,wordin4.png
13,1,3,1,1,1,693.83,wordin2_8.png
13,1,3,2,1,1,678.61,wordex10.png
13,1,3,3,1,1,783.4,wordex2_7.png
13,1,3,4,1,1,832.18,wordex2_9.png
13,1,3,5,1,1,696.97,wordex2_1.png
13,1,3,6,1,1,753.75,wordex4.png
13,1,3,7,2,1,554.47,wordin2_12.png
13,1,3,8,1,1,683.29,wordex12.png
13,1,3,9,1,1,844.05,wordin2_11.png
13,1,3,10,1,1,692.87,wordin4.png
13,1,3,11,1,1,709.66,wordin11.png
13,1,3,12,2,1,774.46,wordin2_6.png
13,1,3,13,1,1,863.21,wordin2_7.png
13,1,3,14,1,1,911.95,wordex1.png
13,1,3,15,1,1,768.74,wordex5.png
13,1,3,16,1,1,569.55,wordin1.png
13,1,3,17,1,1,554.37,wordin2_3.png
13,1,3,18,1,1,691.13,wordin2_4.png
13,1,3,19,1,1,539.91,wordex3.png
13,1,3,20,1,1,620.72,wordex11.png
13,1,3,21,1,1,709.52,wordin12.png
13,1,3,22,1,1,646.29,wordin2_10.png
13,1,3,23,1,1,639.09,wordin2_5.png
13,1,3,24,1,1,583.87,wordex2_11.png
13,1,4,1,1,1,732.73,wordex10.png
13,1,4,2,2,1,629.55,wordin2_12.png
13,1,4,3,2,1,790.35,wordex2_7.png
13,1,4,4,1,1,727.08,wordin11.png
13,1,4,5,1,1,535.92,wordin1.png
13,1,4,6,1,1,528.71,wordex5.png
13,1,4,7,1,1,457.48,wordin2_7.png
13,1,4,8,1,1,442.25,wordex11.png
13,1,4,9,1,1,403.06,wordin2_8.png
13,1,4,10,1,1,587.77,wordin2_3.png
13,1,4,11,1,1,532.62,wordex4.png
13,1,4,12,2,1,765.42,wordin2_11.png
13,1,4,13,1,1,454.17,wordex1.png
13,1,4,14,1,1,518.94,wordin12.png
13,1,4,15,1,1,543.77,wordex12.png
13,1,4,16,0,0,0,wordex2_1.png
13,1,4,17,1,1,305.34,wordin4.png
13,1,4,18,1,1,618.12,wordex2_9.png
13,1,4,19,1,1,682.87,wordin2_4.png
13,1,4,20,1,1,587.68,wordin2_10.png
13,1,4,21,1,1,668.42,wordex2_11.png
13,1,4,22,1,1,597.26,wordin2_6.png
13,1,4,23,0,0,0,wordex3.png
13,1,4,24,1,1,550.81,wordin2_5.png
13,1,5,1,1,1,588,wordin4.png
13,1,5,2,1,1,700.82,wordex4.png
13,1,5,3,1,1,629.54,wordin2_8.png
13,1,5,4,1,1,606.38,wordex2_1.png
13,1,5,5,1,1,543.12,wordin2_3.png
13,1,5,6,1,1,767.89,wordin2_4.png
13,1,5,7,1,1,680.74,wordin2_5.png
13,1,5,8,2,1,673.53,wordin2_6.png
13,1,5,9,1,1,618.32,wordex10.png
13,1,5,10,1,1,507.07,wordex12.png
13,1,5,11,1,1,603.88,wordex2_9.png
13,1,5,12,2,1,636.63,wordex2_7.png
13,1,5,13,1,1,565.42,wordin1.png
13,1,5,14,1,1,534.2,wordex3.png
13,1,5,15,1,1,407.01,wordex1.png
13,1,5,16,1,1,479.81,wordin2_7.png
13,1,5,17,2,1,744.59,wordin2_11.png
13,1,5,18,1,1,697.38,wordin2_10.png
13,1,5,19,1,1,666.13,wordex2_11.png
13,1,5,20,2,1,562.93,wordin2_12.png
13,1,5,21,1,1,475.72,wordex5.png
13,1,5,22,1,1,404.51,wordex11.png
13,1,5,23,1,1,389.3,wordin12.png
13,1,5,24,1,1,574.02,wordin11.png
13,1,6,1,1,1,526.82,wordin12.png
13,1,6,2,1,1,495.68,wordex10.png
13,1,6,3,2,1,696.47,wordex2_7.png
13,1,6,4,2,1,969.25,wordex11.png
13,1,6,5,1,1,618.01,wordin2_5.png
13,1,6,6,2,1,738.81,wordin2_12.png
13,1,6,7,1,1,627.61,wordex2_11.png
13,1,6,8,1,1,436.37,wordin1.png
13,1,6,9,1,1,493.11,wordex3.png
13,1,6,10,1,1,469.96,wordin2_4.png
13,1,6,11,1,1,350.74,wordin2_10.png
13,1,6,12,1,1,479.51,wordex2_1.png
13,1,6,13,1,1,456.29,wordex5.png
13,1,6,14,1,1,449.04,wordin2_3.png
13,1,6,15,1,1,513.88,wordin2_8.png
13,1,6,16,1,1,458.63,wordex4.png
13,1,6,17,2,1,843.45,wordin2_11.png
13,1,6,18,1,1,452.21,wordex2_9.png
13,1,6,19,2,1,413.01,wordex1.png
13,1,6,20,1,1,717.75,wordex12.png
13,1,6,21,1,1,598.57,wordin4.png
13,1,6,22,1,1,495.33,wordin11.png
13,1,6,23,2,1,696.16,wordin2_6.png
13,1,6,24,1,1,664.94,wordin2_7.png
13,1,7,1,1,1,1645.96,wordex10.png
13,1,7,2,2,1,622.76,wordin2_12.png
13,1,7,3,1,1,471.47,wordin2_8.png
13,1,7,4,1,1,432.26,wordin2_7.png
13,1,7,5,1,1,489.07,wordex4.png
13,1,7,6,1,1,425.89,wordin2_3.png
13,1,7,7,1,1,370.68,wordex2_11.png
13,1,7,8,0,0,0,wordin2_10.png
13,1,7,9,1,1,580.24,wordin12.png
13,1,7,10,1,1,413,wordex2_1.png
13,1,7,11,1,1,357.8,wordex5.png
13,1,7,12,2,1,558.55,wordex1.png
13,1,7,13,1,1,463.38,wordin4.png
13,1,7,14,1,1,424.14,wordin2_6.png
13,1,7,15,1,1,552.9,wordin2_5.png
13,1,7,16,1,1,569.72,wordin11.png
13,1,7,17,1,1,626.52,wordex11.png
13,1,7,18,1,1,667.29,wordex2_9.png
13,1,7,19,2,1,636.01,wordin2_11.png
13,1,7,20,2,1,620.86,wordex2_7.png
13,1,7,21,1,1,597.65,wordex3.png
13,1,7,22,1,1,574.44,wordex12.png
13,1,7,23,1,1,479.23,wordin1.png
13,1,7,24,1,1,495.94,wordin2_4.png
13,1,8,1,1,1,551.4,wordin2_10.png
13,1,8,2,1,1,560.23,wordin4.png
13,1,8,3,1,1,577.01,wordin2_5.png
13,1,8,4,1,1,561.79,wordin2_7.png
13,1,8,5,1,1,738.58,wordex2_1.png
13,1,8,6,2,1,539.41,wordex1.png
13,1,8,7,1,1,684.15,wordin2_3.png
13,1,8,8,2,1,612.98,wordin2_12.png
13,1,8,9,2,1,645.71,wordin2_6.png
13,1,8,10,1,1,670.56,wordex10.png
13,1,8,11,1,1,607.31,wordex4.png
13,1,8,12,1,1,680.12,wordin12.png
13,1,8,13,2,1,816.91,wordin2_11.png
13,1,8,14,1,1,601.63,wordex5.png
13,1,8,15,1,1,514.42,wordex11.png
13,1,8,16,1,1,483.21,wordex12.png
13,1,8,17,1,1,444.05,wordin2_4.png
13,1,8,18,1,1,580.83,wordex2_11.png
13,1,8,19,2,1,589.55,wordex2_7.png
13,1,8,20,1,1,478.37,wordin11.png
13,1,8,21,1,1,487.18,wordex3.png
13,1,8,22,1,1,303.89,wordin2_8.png
13,1,8,23,1,1,456.73,wordex2_9.png
13,1,8,24,1,1,385.48,wordin1.png
14,1,1,1,1,1,1473.93,wordex2_6.png
14,1,1,2,1,1,885.35,wordin9.png
14,1,1,3,1,1,1038.15,wordex2_8.png
14,1,1,4,1,1,1046.9,wordin2_9.png
14,1,1,5,2,1,1207.73,wordex2_3.png
14,1,1,6,1,1,592.53,wordex2.png
14,1,1,7,1,1,593.31,wordex2_12.png
14,1,1,8,1,1,642.09,wordex2_4.png
14,1,1,9,2,1,1170.86,wordex2_10.png
14,1,1,10,1,1,923.66,wordin2.png
14,1,1,11,1,1,900.43,wordex2_5.png
14,1,1,12,1,1,773.2,wordex8.png
14,1,1,13,1,1,927.58,wordin2_2.png
14,1,1,14,2,1,774.79,wordex9.png
14,1,1,15,1,1,726.81,wordex7.png
14,1,1,16,1,1,1120.32,wordin7.png
14,1,1,17,1,1,865.09,wordin10.png
14,1,1,18,1,1,713.89,wordin8.png
14,1,1,19,1,1,746.71,wordex2_2.png
14,1,1,20,2,1,795.42,wordin2_1.png
14,1,1,21,1,1,740.26,wordex6.png
14,1,1,22,1,1,789.06,wordin6.png
14,1,1,23,2,1,869.83,wordin3.png
14,1,1,24,2,1,966.59,wordin5.png
14,1,2,1,1,1,568.99,wordex2_3.png
14,1,2,2,2,1,673.75,wordin5.png
14,1,2,3,2,1,810.54,wordex2_6.png
14,1,2,4,2,1,563.33,wordin2_1.png
14,1,2,5,1,1,708.09,wordin2_2.png
14,1,2,6,2,1,644.93,wordin6.png
14,1,2,7,2,1,573.66,wordex2_4.png
14,1,2,8,2,1,982.46,wordex2.png
14,1,2,9,1,1,583.29,wordex2_8.png
14,1,2,10,1,1,912.07,wordex2_10.png
14,1,2,11,2,1,712.79,wordin8.png
14,1,2,12,1,1,665.62,wordin2.png
14,1,2,13,2,1,618.4,wordex2_2.png
14,1,2,14,1,1,851.16,wordex2_12.png
14,1,2,15,0,0,0,wordex8.png
14,1,2,16,2,1,780.75,wordin3.png
14,1,2,17,1,1,869.52,wordin7.png
14,1,2,18,1,1,558.28,wordin9.png
14,1,2,19,1,1,759.12,wordex7.png
14,1,2,20,2,1,551.88,wordex9.png
14,1,2,21,1,1,832.62,wordex2_5.png
14,1,2,22,1,1,777.41,wordin10.png
14,1,2,23,1,1,714.2,wordin2_9.png
14,1,2,24,1,1,818.96,wordex6.png
14,1,3,1,2,1,617.1,wordex2_10.png
14,1,3,2,1,1,601.83,wordin10.png
14,1,3,3,1,1,722.6,wordex6.png
14,1,3,4,1,1,643.37,wordin2_2.png
14,1,3,5,2,1,668.19,wordin8.png
14,1,3,6,1,1,749.01,wordin2_1.png
14,1,3,7,2,1,973.76,wordex2_3.png
14,1,3,8,2,1,654.53,wordex2_6.png
14,1,3,9,1,1,527.31,wordin9.png
14,1,3,10,1,1,1104.15,wordex2_5.png
14,1,3,11,1,1,744.92,wordex2_8.png
14,1,3,12,1,1,593.71,wordex2_4.png
14,1,3,13,2,1,650.47,wordex2_2.png
14,1,3,14,1,1,619.28,wordex2_12.png
14,1,3,15,2,1,836.01,wordin5.png
14,1,3,16,2,1,932.85,wordex8.png
14,1,3,17,2,1,701.59,wordex2.png
14,1,3,18,1,1,678.39,wordin7.png
14,1,3,19,1,1,759.2,wordin2.png
14,1,3,20,1,1,639.98,wordin2_9.png
14,1,3,21,1,1,496.73,wordex7.png
14,1,3,22,2,1,833.51,wordin6.png
14,1,3,23,1,1,626.29,wordin3.png
14,1,3,24,2,1,587.11,wordex9.png
14,1,4,1,2,1,686,wordex2.png
14,1,4,2,1,1,542.73,wordex6.png
14,1,4,3,2,1,719.56,wordin2_1.png
14,1,4,4,1,1,936.3,wordin2_9.png
14,1,4,5,1,1,681.08,wordin2.png
14,1,4,6,1,1,905.91,wordex8.png
14,1,4,7,1,1,930.64,wordex2_8.png
14,1,4,8,1,1,579.46,wordex7.png
14,1,4,9,2,1,804.26,wordin3.png
14,1,4,10,1,1,997.03,wordex2_12.png
14,1,4,11,2,1,885.76,wordin5.png
14,1,4,12,2,1,726.58,wordex2_2.png
14,1,4,13,2,1,751.39,wordin8.png
14,1,4,14,1,1,640.09,wordex2_3.png
14,1,4,15,2,1,760.94,wordex2_10.png
14,1,4,16,1,1,593.69,wordin7.png
14,1,4,17,2,1,922.5,wordin6.png
14,1,4,18,0,0,0,wordex2_4.png
14,1,4,19,0,0,0,wordin9.png
14,1,4,20,2,1,700.83,wordin2_2.png
14,1,4,21,1,1,829.65,wordex9.png
14,1,4,22,0,0,0,wordex2_5.png
14,1,4,23,2,1,711.22,wordex2_6.png
14,1,4,24,1,1,736,wordin10.png
14,1,5,1,1,1,944.02,wordin2_9.png
14,1,5,2,0,0,0,wordex2_3.png
14,1,5,3,1,1,577.6,wordex6.png
14,1,5,4,1,1,466.38,wordin2.png
14,1,5,5,1,1,555.15,wordin9.png
14,1,5,6,1,1,723.89,wordex2_4.png
14,1,5,7,1,1,860.71,wordex8.png
14,1,5,8,1,1,501.52,wordin10.png
14,1,5,9,2,1,550.28,wordex2_2.png
14,1,5,10,0,0,0,wordin8.png
14,1,5,11,1,1,551.82,wordex2_8.png
14,1,5,12,2,1,848.65,wordin5.png
14,1,5,13,1,1,625.39,wordin2_2.png
14,1,5,14,2,1,722.22,wordex2_5.png
14,1,5,15,1,1,818.99,wordin6.png
14,1,5,16,2,1,667.72,wordex2_6.png
14,1,5,17,2,1,940.57,wordin3.png
14,1,5,18,1,1,781.35,wordin7.png
14,1,5,19,1,1,798.08,wordex2.png
14,1,5,20,2,1,1086.91,wordin2_1.png
14,1,5,21,1,1,743.7,wordex7.png
14,1,5,22,2,1,648.46,wordex2_12.png
14,1,5,23,2,1,777.2,wordex9.png
14,1,5,24,1,1,994.05,wordex2_10.png
14,1,6,1,1,1,617.89,wordin7.png
14,1,6,2,2,1,778.68,wordex2_5.png
14,1,6,3,1,1,603.46,wordex2_8.png
14,1,6,4,1,1,460.25,wordin9.png
14,1,6,5,2,1,533.03,wordex9.png
14,1,6,6,2,1,997.82,wordex2_12.png
14,1,6,7,2,1,510.59,wordin2_1.png
14,1,6,8,2,1,543.38,wordin8.png
14,1,6,9,1,1,632.14,wordex6.png
14,1,6,10,2,1,672.94,wordex2.png
14,1,6,11,1,1,513.67,wordin2.png
14,1,6,12,2,1,778.51,wordin5.png
14,1,6,13,1,1,531.3,wordin2_9.png
14,1,6,14,2,1,668.08,wordex2_2.png
14,1,6,15,1,1,356.86,wordex2_3.png
14,1,6,16,2,1,565.64,wordex2_6.png
14,1,6,17,2,1,742.38,wordex2_10.png
14,1,6,18,2,1,663.16,wordin6.png
14,1,6,19,2,1,655.96,wordin3.png
14,1,6,20,1,1,736.77,wordex7.png
14,1,6,21,1,1,625.51,wordin2_2.png
14,1,6,22,1,1,586.34,wordin10.png
14,1,6,23,1,1,587.09,wordex2_4.png
14,1,6,24,2,1,555.9,wordex8.png
14,1,7,1,2,1,543.71,wordin2_9.png
14,1,7,2,2,1,1128.54,wordin6.png
14,1,7,3,2,1,697.32,wordin2_1.png
14,1,7,4,1,1,570.1,wordex6.png
14,1,7,5,2,1,474.84,wordin8.png
14,1,7,6,2,1,811.63,wordex8.png
14,1,7,7,1,1,716.46,wordex7.png
14,1,7,8,2,1,469.24,wordex2_5.png
14,1,7,9,2,1,726.02,wordin5.png
14,1,7,10,1,1,550.81,wordin10.png
14,1,7,11,2,1,687.58,wordex2_3.png
14,1,7,12,0,0,0,wordin9.png
14,1,7,13,2,1,625.16,wordex2_6.png
14,1,7,14,1,1,569.88,wordin7.png
14,1,7,15,2,1,570.73,wordin2.png
14,1,7,16,1,1,803.46,wordin2_2.png
14,1,7,17,2,1,604.29,wordin3.png
14,1,7,18,1,1,741.04,wordex2_2.png
14,1,7,19,2,1,437.83,wordex2_8.png
14,1,7,20,2,1,606.62,wordex2_10.png
14,1,7,21,2,1,503.4,wordex2.png
14,1,7,22,1,1,776.21,wordex2_4.png
14,1,7,23,0,0,0,wordex2_12.png
14,1,7,24,2,1,481.76,wordex9.png
14,1,8,1,2,1,617.67,wordin3.png
14,1,8,2,1,1,482.41,wordex2_8.png
14,1,8,3,2,1,651.25,wordin2_1.png
14,1,8,4,1,1,644.03,wordin2_9.png
14,1,8,5,2,1,492.8,wordex2.png
14,1,8,6,2,1,749.55,wordex2_10.png
14,1,8,7,1,1,614.38,wordin8.png
14,1,8,8,1,1,543.14,wordin9.png
14,1,8,9,2,1,727.89,wordex2_6.png
14,1,8,10,1,1,688.72,wordex7.png
14,1,8,11,2,1,657.52,wordex2_3.png
14,1,8,12,0,0,0,wordin2_2.png
14,1,8,13,2,1,875.08,wordin6.png
14,1,8,14,0,0,0,wordin7.png
14,1,8,15,2,1,556.57,wordex9.png
14,1,8,16,2,1,677.37,wordex2_2.png
14,1,8,17,1,1,806.18,wordex8.png
14,1,8,18,1,1,903,wordex2_4.png
14,1,8,19,1,1,679.75,wordex6.png
14,1,8,20,2,1,496.56,wordin5.png
14,1,8,21,1,1,417.3,wordin2.png
14,1,8,22,1,1,650.11,wordin10.png
14,1,8,23,2,1,602.85,wordex2_5.png
14,1,8,24,2,1,851.7,wordex2_12.png
15,1,1,1,1,1,1049.49,wordex1.png
15,1,1,2,1,1,799.63,wordin2_11.png
15,1,1,3,1,1,888.42,wordin2_5.png
15,1,1,4,2,1,713.22,wordin2_12.png
15,1,1,5,1,1,634.01,wordex2_11.png
15,1,1,6,1,1,794.75,wordex2_1.png
15,1,1,7,1,1,595.53,wordin12.png
15,1,1,8,1,1,820.37,wordex5.png
15,1,1,9,1,1,973.09,wordin11.png
15,1,1,10,1,1,709.91,wordex2_9.png
15,1,1,11,1,1,590.71,wordin2_6.png
15,1,1,12,2,1,623.49,wordex10.png
15,1,1,13,1,1,560.27,wordin2_3.png
15,1,1,14,2,1,931.76,wordin4.png
15,1,1,15,1,1,708.53,wordin1.png
15,1,1,16,1,1,741.31,wordin2_8.png
15,1,1,17,2,1,1006.07,wordex4.png
15,1,1,18,1,1,734.88,wordin2_4.png
15,1,1,19,1,1,639.68,wordin2_7.png
15,1,1,20,1,1,616.46,wordex3.png
15,1,1,21,1,1,633.25,wordex2_7.png
15,1,1,22,1,1,514,wordex11.png
15,1,1,23,1,1,514.84,wordin2_10.png
15,1,1,24,1,1,547.61,wordex12.png
15,1,2,1,1,1,683.32,wordin2_8.png
15,1,2,2,1,1,492.06,wordin2_7.png
15,1,2,3,1,1,508.82,wordin2_10.png
15,1,2,4,1,1,581.67,wordex2_7.png
15,1,2,5,2,1,662.46,wordin4.png
15,1,2,6,1,1,711.19,wordex3.png
15,1,2,7,2,1,728.02,wordin11.png
15,1,2,8,1,1,520.81,wordin2_6.png
15,1,2,9,1,1,476.23,wordin2_3.png
15,1,2,10,1,1,797.06,wordin2_5.png
15,1,2,11,1,1,469.85,wordex5.png
15,1,2,12,1,1,590.57,wordin12.png
15,1,2,13,1,1,639.4,wordex1.png
15,1,2,14,2,1,624.17,wordin2_4.png
15,1,2,15,2,1,617.01,wordin2_12.png
15,1,2,16,1,1,529.77,wordex2_11.png
15,1,2,17,1,1,498.57,wordin1.png
15,1,2,18,2,1,533.95,wordex2_1.png
15,1,2,19,1,1,430.82,wordex11.png
15,1,2,20,1,1,511.57,wordin2_11.png
15,1,2,21,2,1,664.35,wordex2_9.png
15,1,2,22,1,1,801.17,wordex4.png
15,1,2,23,1,1,649.94,wordex10.png
15,1,2,24,1,1,546.75,wordex12.png
15,1,3,1,1,1,575.36,wordin2_6.png
15,1,3,2,2,1,480.16,wordin2_5.png
15,1,3,3,1,1,592.93,wordex12.png
15,1,3,4,1,1,465.76,wordex5.png
15,1,3,5,1,1,466.52,wordin2_3.png
15,1,3,6,2,1,603.33,wordin4.png
15,1,3,7,1,1,492.1,wordin1.png
15,1,3,8,2,1,708.91,wordex2_9.png
15,1,3,9,1,1,517.68,wordin2_11.png
15,1,3,10,1,1,606.45,wordex3.png
15,1,3,11,2,1,687.24,wordin11.png
15,1,3,12,1,1,511.92,wordin2_10.png
15,1,3,13,1,1,472.84,wordex2_11.png
15,1,3,14,2,1,681.62,wordin2_4.png
15,1,3,15,1,1,522.4,wordex1.png
15,1,3,16,2,1,539.15,wordex2_1.png
15,1,3,17,1,1,539.93,wordin2_8.png
15,1,3,18,1,1,1124.73,wordex10.png
15,1,3,19,2,1,933.52,wordex4.png
15,1,3,20,2,1,574.34,wordin2_12.png
15,1,3,21,1,1,599.11,wordin12.png
15,1,3,22,1,1,631.91,wordex2_7.png
15,1,3,23,1,1,576.7,wordex11.png
15,1,3,24,1,1,497.43,wordin2_7.png
15,1,4,1,1,1,497.78,wordex2_7.png
15,1,4,2,1,1,466.53,wordin2_10.png
15,1,4,3,1,1,547.35,wordin2_7.png
15,1,4,4,1,1,636.16,wordex12.png
15,1,4,5,2,1,612.94,wordex2_1.png
15,1,4,6,1,1,533.73,wordin12.png
15,1,4,7,2,1,542.5,wordin2_4.png
15,1,4,8,2,1,679.27,wordin2_5.png
15,1,4,9,1,1,720.09,wordex10.png
15,1,4,10,1,1,640.86,wordin2_6.png
15,1,4,11,1,1,489.66,wordin2_3.png
15,1,4,12,1,1,562.44,wordin2_11.png
15,1,4,13,2,1,619.23,wordin4.png
15,1,4,14,1,1,563.99,wordex1.png
15,1,4,15,2,1,588.77,wordin11.png
15,1,4,16,1,1,509.55,wordex11.png
15,1,4,17,1,1,542.34,wordin2_8.png
15,1,4,18,2,1,591.17,wordex3.png
15,1,4,19,2,1,591.93,wordin2_12.png
15,1,4,20,1,1,784.72,wordex4.png
15,1,4,21,1,1,641.47,wordex5.png
15,1,4,22,2,1,1074.3,wordex2_9.png
15,1,4,23,1,1,595.05,wordin1.png
15,1,4,24,1,1,643.89,wordex2_11.png
15,1,5,1,1,1,456.36,wordex2_7.png
15,1,5,2,1,1,441.12,wordin12.png
15,1,5,3,2,1,617.93,wordin11.png
15,1,5,4,2,1,618.65,wordex3.png
15,1,5,5,2,1,587.45,wordin4.png
15,1,5,6,1,1,476.24,wordin2_7.png
15,1,5,7,1,1,365.07,wordex10.png
15,1,5,8,2,1,805.81,wordex2_1.png
15,1,5,9,1,1,598.59,wordex5.png
15,1,5,10,1,1,567.43,wordex1.png
15,1,5,11,1,1,472.17,wordin2_6.png
15,1,5,12,1,1,576.96,wordin2_11.png
15,1,5,13,2,1,577.75,wordin2_5.png
15,1,5,14,2,1,610.55,wordin2_4.png
15,1,5,15,1,1,555.37,wordex12.png
15,1,5,16,1,1,476.09,wordex11.png
15,1,5,17,2,1,524.9,wordin2_12.png
15,1,5,18,1,1,469.66,wordex2_11.png
15,1,5,19,1,1,406.45,wordin2_8.png
15,1,5,20,1,1,503.24,wordin1.png
15,1,5,21,2,1,496.09,wordex4.png
15,1,5,22,1,1,504.8,wordin2_3.png
15,1,5,23,1,1,505.66,wordin2_10.png
15,1,5,24,2,1,594.44,wordex2_9.png
15,1,6,1,1,1,434.97,wordin2_3.png
15,1,6,2,1,1,419.74,wordex11.png
15,1,6,3,1,1,444.58,wordin2_6.png
15,1,6,4,2,1,525.33,wordin4.png
15,1,6,5,1,1,486.15,wordin2_11.png
15,1,6,6,1,1,446.89,wordin12.png
15,1,6,7,1,1,415.72,wordin2_8.png
15,1,6,8,1,1,448.51,wordex5.png
15,1,6,9,1,1,449.24,wordex12.png
15,1,6,10,1,1,490.08,wordex2_7.png
15,1,6,11,1,1,874.83,wordex10.png
15,1,6,12,1,1,523.66,wordex2_11.png
15,1,6,13,2,1,532.42,wordin2_5.png
15,1,6,14,1,1,461.23,wordex1.png
15,1,6,15,2,1,534.02,wordin11.png
15,1,6,16,2,1,646.79,wordex2_1.png
15,1,6,17,1,1,575.6,wordin1.png
15,1,6,18,2,1,584.37,wordex3.png
15,1,6,19,1,1,393.12,wordex2_9.png
15,1,6,20,2,1,601.9,wordin2_12.png
15,1,6,21,1,1,674.69,wordin2_10.png
15,1,6,22,1,1,827.5,wordin2_7.png
15,1,6,23,1,1,548.3,wordin2_4.png
15,1,6,24,1,1,861.1,wordex4.png
15,1,7,1,2,1,508.22,wordin2_12.png
15,1,7,2,1,1,516.97,wordin2_6.png
15,1,7,3,2,1,749.74,wordex10.png
15,1,7,4,2,1,566.5,wordin2_5.png
15,1,7,5,1,1,535.34,wordin1.png
15,1,7,6,2,1,680.13,wordex2_1.png
15,1,7,7,2,1,776.87,wordin4.png
15,1,7,8,1,1,569.68,wordex2_7.png
15,1,7,9,1,1,466.44,wordex11.png
15,1,7,10,1,1,931.24,wordin2_3.png
15,1,7,11,1,1,748.07,wordex4.png
15,1,7,12,2,1,588.81,wordex3.png
15,1,7,13,2,1,605.62,wordex2_9.png
15,1,7,14,1,1,521.1,wordin2_10.png
15,1,7,15,1,1,481.89,wordin2_7.png
15,1,7,16,1,1,546.66,wordin2_8.png
15,1,7,17,1,1,475.46,wordex1.png
15,1,7,18,1,1,468.24,wordex2_11.png
15,1,7,19,2,1,588.98,wordin2_4.png
15,1,7,20,1,1,557.81,wordex12.png
15,1,7,21,1,1,542.55,wordin12.png
15,1,7,22,1,1,735.39,wordex5.png
15,1,7,23,1,1,512.18,wordin2_11.png
15,1,7,24,2,1,800.91,wordin11.png
15,1,8,1,2,1,593.57,wordin2_4.png
15,1,8,2,1,1,514.3,wordin2_6.png
15,1,8,3,1,1,483.1,wordex10.png
15,1,8,4,1,1,435.88,wordex5.png
15,1,8,5,2,1,572.72,wordin11.png
15,1,8,6,2,1,501.51,wordex2_9.png
15,1,8,7,2,1,470.27,wordex3.png
15,1,8,8,1,1,519.06,wordex4.png
15,1,8,9,1,1,655.86,wordin2_8.png
15,1,8,10,1,1,368.65,wordin2_5.png
15,1,8,11,1,1,425.41,wordex11.png
15,1,8,12,2,1,530.22,wordex2_1.png
15,1,8,13,1,1,506.98,wordin2_10.png
15,1,8,14,1,1,523.8,wordin2_11.png
15,1,8,15,1,1,772.59,wordin2_7.png
15,1,8,16,1,1,565.34,wordin12.png
15,1,8,17,1,1,462.1,wordex1.png
15,1,8,18,0,0,0,wordin2_12.png
15,1,8,19,1,1,823.71,wordex12.png
15,1,8,20,1,1,600.52,wordex2_7.png
15,1,8,21,2,1,617.29,wordin4.png
15,1,8,22,1,1,682.1,wordin1.png
15,1,8,23,1,1,658.85,wordin2_3.png
15,1,8,24,1,1,555.63,wordex2_11.png
16,2,1,1,2,1,795.42,nonwex2_5.png
16,2,1,2,2,1,649.52,nonwin2_11.png
16,2,1,3,2,1,636.85,nonwex5.png
16,2,1,4,2,1,677.6,nonwex10.png
16,2,1,5,2,1,766.35,nonwex2_12.png
16,2,1,6,1,1,751.08,nonwin6.png
16,2,1,7,2,1,503.83,nonwex2.png
16,2,1,8,2,1,640.54,nonwex2_8.png
16,2,1,9,2,1,833.24,nonwex2_1.png
16,2,1,10,2,1,849.99,nonwin2.png
16,2,1,11,2,1,738.7,nonwex2_3.png
16,2,1,12,2,1,939.48,nonwin9.png
16,2,1,13,2,1,1020.23,nonwex8.png
16,2,1,14,2,1,716.94,nonwex2_9.png
16,2,1,15,1,1,501.66,nonwin2_7.png
16,2,1,16,1,1,518.38,nonwin2_6.png
16,2,1,17,2,1,743.11,nonwin4.png
16,2,1,18,2,1,535.85,nonwex2_11.png
16,2,1,19,2,1,616.56,nonwex7.png
16,2,1,20,1,1,945.33,nonwex3.png
16,2,1,21,2,1,594.04,nonwin1.png
16,2,1,22,2,1,610.72,nonwex9.png
16,2,1,23,2,1,814.12,nonwin2_12.png
16,2,1,24,2,1,742.85,nonwin11.png
16,2,2,1,2,1,851.96,nonwex2_1.png
16,2,2,2,2,1,708.77,nonwex5.png
16,2,2,3,1,1,885.44,nonwin2_6.png
16,2,2,4,2,1,822.18,nonwex8.png
16,2,2,5,2,1,910.93,nonwex2_11.png
16,2,2,6,1,1,807.65,nonwex9.png
16,2,2,7,2,1,888.42,nonwin6.png
16,2,2,8,1,1,705.11,nonwex10.png
16,2,2,9,2,1,593.87,nonwin9.png
16,2,2,10,2,1,778.6,nonwin1.png
16,2,2,11,2,1,563.29,nonwex2_9.png
16,2,2,12,2,1,668.06,nonwex7.png
16,2,2,13,2,1,652.79,nonwex2_12.png
16,2,2,14,2,1,629.47,nonwex2_8.png
16,2,2,15,2,1,638.19,nonwin2.png
16,2,2,16,2,1,702.98,nonwin2_7.png
16,2,2,17,2,1,655.69,nonwin11.png
16,2,2,18,2,1,720.4,nonwex2_3.png
16,2,2,19,2,1,649.11,nonwex2_5.png
16,2,2,20,1,1,913.9,nonwin2_12.png
16,2,2,21,2,1,594.58,nonwin2_11.png
16,2,2,22,1,1,891.36,nonwin4.png
16,2,2,23,1,1,908.09,nonwex3.png
16,2,2,24,2,1,564.78,nonwex2.png
16,2,3,1,2,1,524.22,nonwin2_7.png
16,2,3,2,2,1,500.97,nonwex2_3.png
