SID,Familiarity,Trial,Repetition,ImgCat,Loc,Resp,Corr,RT,ImgName
1,1,1,2,1,3,1,1,1135.99,actor9.jpg
1,1,2,2,1,4,1,1,692.29,athlete13.jpg
1,1,3,1,2,3,2,1,536.67,famfemale01.jpg
1,1,4,1,1,2,1,1,789.05,actor53.jpg
1,1,5,2,1,3,1,1,1257.4,actor7.jpg
1,1,6,2,1,1,1,1,789.79,capture003 copy.jpg
1,1,7,1,2,2,2,1,690.14,famfemale39.jpg
1,1,8,2,2,1,2,1,662.56,famfemale24.jpg
1,1,9,2,2,4,2,1,602.92,famfemale29.jpg
1,1,10,1,2,2,2,1,423.24,famfemale36.jpg
1,1,11,2,2,3,2,1,635.7,famfemale37.jpg
1,1,12,1,2,1,2,1,591.98,famfemale02.jpg
1,1,13,2,2,3,2,1,900.37,famfemale11.jpg
1,1,14,1,1,1,1,1,840.8,capture027 copy.jpg
1,1,15,2,1,1,1,1,660.88,actor54.jpg
1,1,16,2,2,3,2,1,809.53,famfemale19.jpg
1,1,17,1,2,2,2,1,565.92,famfemale38.jpg
1,1,18,1,1,3,1,1,682.28,actorprac1.jpg
1,1,19,2,2,2,2,1,758.65,famfemale26.jpg
1,1,20,2,2,4,2,1,747.02,famfemale04.jpg
1,1,21,2,1,4,1,1,839.37,athlete7.jpg
1,1,22,2,2,2,2,1,803.67,famfemale23.jpg
1,1,23,1,2,4,2,1,808.04,famfemale22.jpg
1,1,24,1,2,3,2,1,820.46,famfemale08.jpg
1,1,25,2,2,2,2,1,472.77,famfemale18.jpg
1,1,26,1,1,1,1,1,645.19,capture025 copy.jpg
1,1,27,1,1,2,1,1,593.58,athlete28.jpg
1,1,28,2,2,4,2,1,797.95,famfemale06.jpg
1,1,29,2,1,3,1,1,842.31,capture026 copy.jpg
1,1,30,1,2,4,2,1,782.5,famfemale40.jpg
1,1,31,2,1,2,1,1,515.02,actor12.jpg
1,1,32,1,2,1,2,1,783.44,famfemale34.jpg
1,1,33,1,1,1,1,1,635.75,actor51.jpg
1,1,34,1,2,4,2,1,600.11,famfemale30.jpg
1,1,35,2,2,1,2,1,620.46,famfemale09.jpg
1,1,36,1,2,1,2,1,544.85,famfemale21.jpg
1,1,37,1,1,2,1,1,805.28,actor49.jpg
1,1,38,2,2,1,2,1,825.65,famfemale32.jpg
1,1,39,1,1,4,1,1,694.01,actor17.jpg
1,1,40,2,1,1,1,1,850.39,actor41.jpg
1,1,41,1,1,3,1,1,998.72,athlete1.jpg
1,1,42,2,1,4,1,1,579.07,actor35.jpg
1,1,43,2,1,2,1,1,735.49,actor19.jpg
1,1,44,1,1,4,1,1,739.84,capture008 copy.jpg
1,1,45,2,1,2,1,1,632.04,actor44.jpg
1,1,46,1,1,3,1,1,684.58,athlete6.jpg
1,1,47,1,2,3,2,1,880.93,famfemale12.jpg
1,1,48,1,1,4,1,1,661.29,actor14.jpg
2,1,1,2,1,3,1,1,886.64,athlete6.jpg
2,1,2,2,1,1,1,1,586.93,actor14.jpg
2,1,3,1,1,4,1,1,1215.32,capture026 copy.jpg
2,1,4,1,2,4,2,1,867.74,famfemale40.jpg
2,1,5,2,2,2,2,1,1368.09,famfemale04.jpg
2,1,6,2,1,2,1,1,1276.4,athlete28.jpg
2,1,7,1,2,3,2,1,1344.84,famfemale01.jpg
2,1,8,1,2,2,2,1,1461.16,famfemale22.jpg
2,1,9,2,2,2,2,1,929.56,famfemale18.jpg
2,1,10,1,1,2,1,1,1077.89,athlete7.jpg
2,1,11,2,2,4,2,1,1434.26,famfemale37.jpg
2,1,12,2,2,3,2,1,2134.5,famfemale19.jpg
2,1,13,2,2,1,2,1,1162.99,famfemale24.jpg
2,1,14,1,2,1,2,1,855.36,famfemale30.jpg
2,1,15,2,1,4,1,1,1915.76,actor53.jpg
2,1,16,1,1,1,1,1,2008.12,actor19.jpg
2,1,17,1,1,1,1,1,1388.43,capture003 copy.jpg
2,1,18,1,2,1,2,1,1448.87,famfemale12.jpg
2,1,19,2,2,2,2,1,2101.2,famfemale32.jpg
2,1,20,1,2,4,2,1,1585.57,famfemale34.jpg
2,1,21,2,2,3,2,1,1845.91,famfemale06.jpg
2,1,22,1,1,3,1,1,1738.37,actor35.jpg
2,1,23,2,1,4,1,1,1542.64,actor17.jpg
2,1,24,1,2,2,2,1,1675.07,famfemale08.jpg
2,1,25,2,2,4,0,0,0,famfemale23.jpg
2,1,26,1,2,4,2,1,763.82,famfemale21.jpg
2,1,27,2,2,3,2,1,1311.96,famfemale09.jpg
2,1,28,1,1,3,1,1,1188.47,actor44.jpg
2,1,29,2,1,3,1,1,1160.88,actorprac1.jpg
2,1,30,1,2,2,2,1,1229.3,famfemale38.jpg
2,1,31,1,2,1,1,0,1225.66,famfemale02.jpg
2,1,32,1,1,4,1,1,942.04,actor41.jpg
2,1,33,1,2,3,2,1,1690.39,famfemale39.jpg
2,1,34,1,1,4,1,1,1278.77,actor12.jpg
2,1,35,1,1,3,1,1,1091.09,actor7.jpg
2,1,36,2,1,2,1,1,903.46,capture008 copy.jpg
2,1,37,1,2,3,2,1,1459.85,famfemale36.jpg
2,1,38,2,1,1,1,1,1520.22,capture025 copy.jpg
2,1,39,2,1,2,1,1,1332.58,capture027 copy.jpg
2,1,40,2,1,3,1,1,1136.96,athlete1.jpg
2,1,41,2,2,4,2,1,1517.3,famfemale11.jpg
2,1,42,2,2,1,2,1,1665.44,famfemale29.jpg
2,1,43,2,1,1,1,1,1070.04,actor51.jpg
2,1,44,2,1,4,1,1,1346.38,actor49.jpg
2,1,45,1,1,2,1,1,814.74,actor9.jpg
2,1,46,1,1,1,1,1,923.17,actor54.jpg
2,1,47,2,2,1,1,0,991.46,famfemale26.jpg
2,1,48,1,1,2,1,1,771.91,athlete13.jpg
3,1,1,2,2,3,2,1,1076.23,famfemale40.jpg
3,1,2,1,1,1,1,1,792.56,athlete1.jpg
3,1,3,1,2,1,1,0,636.98,famfemale32.jpg
3,1,4,2,2,2,2,1,937.36,famfemale02.jpg
3,1,5,1,1,3,1,1,909.71,actor49.jpg
3,1,6,2,2,3,2,1,794.04,famfemale34.jpg
3,1,7,1,2,1,2,1,734.4,famfemale09.jpg
3,1,8,2,1,1,1,1,770.86,actor12.jpg
3,1,9,2,1,4,1,1,823.16,actor54.jpg
3,1,10,1,1,1,1,1,539.51,actorprac1.jpg
3,1,11,1,2,2,2,1,615.9,famfemale18.jpg
3,1,12,2,1,3,1,1,748.32,capture026 copy.jpg
3,1,13,2,2,1,2,1,624.44,famfemale22.jpg
3,1,14,1,2,4,2,1,877.07,famfemale19.jpg
3,1,15,2,2,4,2,1,857.42,famfemale08.jpg
3,1,16,1,1,2,1,1,789.77,capture025 copy.jpg
3,1,17,2,2,4,2,1,906.11,famfemale12.jpg
3,1,18,2,2,1,2,1,902.49,famfemale38.jpg
3,1,19,1,1,4,1,1,882.9,athlete6.jpg
3,1,20,2,1,3,1,1,871.23,actor44.jpg
3,1,21,1,1,1,1,1,963.64,actor14.jpg
3,1,22,2,2,2,2,1,719.94,famfemale21.jpg
3,1,23,1,1,2,1,1,932.32,capture027 copy.jpg
3,1,24,2,1,2,1,1,1104.73,capture003 copy.jpg
3,1,25,1,2,2,2,1,909.12,famfemale24.jpg
3,1,26,2,1,4,1,1,1089.45,actor19.jpg
3,1,27,1,2,2,2,1,829.82,famfemale37.jpg
3,1,28,1,2,3,2,1,809.94,famfemale26.jpg
3,1,29,1,1,3,1,1,878.53,actor17.jpg
3,1,30,1,1,4,1,1,1002.67,actor51.jpg
3,1,31,2,1,3,1,1,743.26,athlete7.jpg
3,1,32,1,1,4,1,1,699.63,actor53.jpg
3,1,33,1,2,4,2,1,623.99,famfemale06.jpg
3,1,34,2,1,1,1,1,716.44,actor9.jpg
3,1,35,2,1,2,1,1,808.73,actor7.jpg
3,1,36,2,2,3,2,1,829.09,famfemale01.jpg
3,1,37,1,1,2,1,1,721.52,capture008 copy.jpg
3,1,38,2,1,1,1,1,789.84,athlete13.jpg
3,1,39,1,2,4,2,1,714.21,famfemale23.jpg
3,1,40,1,2,3,2,1,686.59,famfemale29.jpg
3,1,41,2,2,4,2,1,738.97,famfemale30.jpg
3,1,42,2,2,2,2,1,679.32,famfemale39.jpg
3,1,43,1,2,3,2,1,739.72,famfemale11.jpg
3,1,44,1,1,3,1,1,712.07,athlete28.jpg
3,1,45,2,1,2,1,1,644.22,actor35.jpg
3,1,46,1,2,1,2,1,632.77,famfemale04.jpg
3,1,47,2,2,1,2,1,589.14,famfemale36.jpg
3,1,48,2,1,4,1,1,633.49,actor41.jpg
4,1,1,2,1,2,1,1,874.97,capture025 copy.jpg
4,1,2,1,2,3,2,1,703.33,famfemale40.jpg
4,1,3,2,2,2,2,1,1011.51,famfemale19.jpg
4,1,4,2,2,2,2,1,944.01,famfemale09.jpg
4,1,5,1,2,1,2,1,1004.38,famfemale08.jpg
4,1,6,1,1,3,1,1,856.84,actor44.jpg
4,1,7,2,2,2,2,1,1277.18,famfemale32.jpg
4,1,8,2,1,3,1,1,1009.49,athlete6.jpg
4,1,9,2,1,4,1,1,1013.85,capture027 copy.jpg
4,1,10,2,2,4,2,1,818.27,famfemale06.jpg
4,1,11,2,2,1,2,1,782.61,famfemale04.jpg
4,1,12,2,1,3,1,1,754.99,actor49.jpg
4,1,13,2,1,3,1,1,911.37,athlete28.jpg
4,1,14,1,2,2,2,1,747.77,famfemale30.jpg
4,1,15,2,1,2,1,1,960.1,actor53.jpg
4,1,16,2,1,1,1,1,1148.45,actor51.jpg
4,1,17,2,2,4,2,1,936.84,famfemale26.jpg
4,1,18,2,2,1,2,1,733,famfemale23.jpg
4,1,19,1,1,4,1,1,841.6,actor41.jpg
4,1,20,1,1,3,1,1,717.97,actor9.jpg
4,1,21,2,1,2,1,1,594.36,actor17.jpg
4,1,22,1,2,4,2,1,758.72,famfemale36.jpg
4,1,23,1,1,1,1,1,771.03,actor7.jpg
4,1,24,1,2,3,2,1,679.45,famfemale39.jpg
4,1,25,1,2,4,2,1,851.81,famfemale02.jpg
4,1,26,1,1,1,1,1,608.19,actor19.jpg
4,1,27,1,2,2,2,1,620.47,famfemale38.jpg
4,1,28,2,1,4,1,1,1160.89,actorprac1.jpg
4,1,29,2,1,1,1,1,941.27,capture008 copy.jpg
4,1,30,1,2,1,2,1,1049.64,famfemale12.jpg
4,1,31,1,1,4,1,1,1534.05,capture003 copy.jpg
4,1,32,2,2,3,2,1,834.34,famfemale24.jpg
4,1,33,2,2,3,2,1,1070.54,famfemale37.jpg
4,1,34,1,1,1,1,1,643.12,actor12.jpg
4,1,35,1,1,3,1,1,831.48,capture026 copy.jpg
4,1,36,1,2,3,2,1,771.83,famfemale01.jpg
4,1,37,1,2,2,2,1,728.25,famfemale22.jpg
4,1,38,2,1,1,1,1,740.58,athlete1.jpg
4,1,39,2,2,1,2,1,1056.92,famfemale11.jpg
4,1,40,1,2,4,2,1,917.31,famfemale34.jpg
4,1,41,1,1,2,1,1,777.71,actor35.jpg
4,1,42,2,2,4,2,1,950.02,famfemale18.jpg
4,1,43,1,1,2,1,1,858.42,actor54.jpg
4,1,44,1,2,1,2,1,910.78,famfemale21.jpg
4,1,45,2,1,4,1,1,763.14,actor14.jpg
4,1,46,1,1,4,1,1,903.51,athlete7.jpg
4,1,47,1,1,2,1,1,939.93,athlete13.jpg
4,1,48,2,2,3,2,1,1008,famfemale29.jpg
5,1,1,1,2,3,2,1,908.08,famfemale12.jpg
5,1,2,1,1,1,1,1,874.73,athlete6.jpg
5,1,3,2,1,1,1,1,1289.32,capture003 copy.jpg
5,1,4,1,1,2,1,1,1632,actor53.jpg
5,1,5,2,1,4,1,1,1550.52,actor44.jpg
5,1,6,1,1,4,1,1,1685.21,actor49.jpg
5,1,7,1,1,3,1,1,2211.84,actor14.jpg
5,1,8,2,2,1,2,1,962.39,famfemale24.jpg
5,1,9,1,2,2,2,1,1333.17,famfemale02.jpg
5,1,10,1,2,3,2,1,1475.86,famfemale38.jpg
5,1,11,1,2,1,2,1,1394.22,famfemale36.jpg
5,1,12,2,2,1,2,1,1825.07,famfemale29.jpg
5,1,13,2,1,2,1,1,1191.47,actor19.jpg
5,1,14,2,2,2,2,1,1398.27,famfemale32.jpg
5,1,15,2,2,2,2,1,1556.82,famfemale23.jpg
5,1,16,1,1,4,1,1,1251.45,capture027 copy.jpg
5,1,17,2,1,3,1,1,1274.09,athlete7.jpg
5,1,18,2,1,1,1,1,952.67,capture026 copy.jpg
5,1,19,2,1,2,1,1,1303.32,athlete13.jpg
5,1,20,2,1,4,1,1,1357.9,actor9.jpg
5,1,21,2,1,1,1,1,1852.53,actor7.jpg
5,1,22,1,2,1,2,1,1843.08,famfemale30.jpg
5,1,23,1,2,2,2,1,1705.69,famfemale21.jpg
5,1,24,1,1,2,1,1,768.36,actorprac1.jpg
5,1,25,1,1,3,1,1,2007,athlete28.jpg
5,1,26,1,1,1,1,1,1373.54,actor51.jpg
5,1,27,2,2,1,2,1,1284.17,famfemale19.jpg
5,1,28,1,1,2,1,1,1546.61,capture008 copy.jpg
5,1,29,1,2,2,2,1,1945.37,famfemale22.jpg
5,1,30,2,1,3,1,1,1199.99,actor35.jpg
5,1,31,2,2,3,2,1,1498.86,famfemale09.jpg
5,1,32,1,2,4,2,1,2113.49,famfemale08.jpg
5,1,33,2,2,3,2,1,1304.07,famfemale04.jpg
5,1,34,2,2,3,2,1,1302.68,famfemale11.jpg
5,1,35,1,2,1,2,1,1125.29,famfemale34.jpg
5,1,36,2,2,4,2,1,971.89,famfemale06.jpg
5,1,37,2,2,4,2,1,1594.5,famfemale26.jpg
5,1,38,2,1,3,1,1,1193.05,actor41.jpg
5,1,39,2,2,4,2,1,1127.68,famfemale18.jpg
5,1,40,1,1,1,1,1,646.31,athlete1.jpg
5,1,41,1,1,3,1,1,1180.84,actor17.jpg
5,1,42,1,2,4,2,1,787.43,famfemale40.jpg
5,1,43,2,1,2,1,1,1649.93,actor54.jpg
5,1,44,2,2,2,2,1,1432.72,famfemale37.jpg
5,1,45,1,2,3,2,1,903.35,famfemale01.jpg
5,1,46,1,1,4,1,1,957.91,capture025 copy.jpg
5,1,47,2,1,4,1,1,2284.56,actor12.jpg
5,1,48,1,2,4,2,1,2003.12,famfemale39.jpg
6,1,1,1,1,1,1,1,2000.72,athlete7.jpg
6,1,2,2,1,3,1,1,1829.07,actor49.jpg
6,1,3,1,1,1,1,1,513.33,capture003 copy.jpg
6,1,4,2,1,2,1,1,1101.74,capture027 copy.jpg
6,1,5,1,2,2,2,1,636.82,famfemale37.jpg
6,1,6,1,2,1,1,0,585.16,famfemale19.jpg
6,1,7,1,2,1,1,0,429.54,famfemale11.jpg
6,1,8,1,1,3,1,1,1025.9,actor35.jpg
6,1,9,2,1,3,1,1,502.28,actorprac1.jpg
6,1,10,1,1,4,1,1,562.62,actor12.jpg
6,1,11,2,1,4,1,1,910.98,actor51.jpg
6,1,12,1,2,4,2,1,899.17,famfemale32.jpg
6,1,13,2,2,3,1,0,447.78,famfemale34.jpg
6,1,14,1,2,3,2,1,652.07,famfemale04.jpg
6,1,15,2,2,4,2,1,704.51,famfemale38.jpg
6,1,16,2,2,4,2,1,612.85,famfemale08.jpg
6,1,17,2,1,3,1,1,1065.24,actor17.jpg
6,1,18,2,1,1,0,0,0,capture008 copy.jpg
6,1,19,1,2,2,2,1,593.92,famfemale26.jpg
6,1,20,1,2,4,2,1,710.31,famfemale18.jpg
6,1,21,1,1,2,1,1,1818.69,actor7.jpg
6,1,22,2,2,1,2,1,719.06,famfemale02.jpg
6,1,23,2,2,4,2,1,1107.39,famfemale22.jpg
6,1,24,2,1,4,1,1,1151.79,capture025 copy.jpg
6,1,25,1,1,3,1,1,980.13,actor9.jpg
6,1,26,1,2,3,2,1,848.48,famfemale24.jpg
6,1,27,2,2,2,2,1,644.68,famfemale01.jpg
6,1,28,1,1,4,1,1,1217.29,actor44.jpg
6,1,29,2,1,4,1,1,901.62,athlete1.jpg
6,1,30,1,1,4,1,1,890,actor54.jpg
6,1,31,2,2,2,2,1,918.4,famfemale21.jpg
6,1,32,1,1,2,1,1,1122.73,actor41.jpg
6,1,33,1,2,3,2,1,1151.1,famfemale06.jpg
6,1,34,2,1,1,1,1,1051.41,athlete28.jpg
6,1,35,2,1,2,1,1,647.86,actor14.jpg
6,1,36,1,2,2,2,1,764.17,famfemale29.jpg
6,1,37,1,1,3,1,1,760.55,actor19.jpg
6,1,38,2,1,2,1,1,1684.92,actor53.jpg
6,1,39,1,2,1,2,1,721.26,famfemale09.jpg
6,1,40,2,2,1,2,1,981.68,famfemale36.jpg
6,1,41,2,2,1,2,1,738.01,famfemale30.jpg
6,1,42,2,1,1,1,1,1158.24,athlete6.jpg
6,1,43,1,1,2,2,0,1594.78,capture026 copy.jpg
6,1,44,1,1,1,1,1,591.13,athlete13.jpg
6,1,45,2,2,3,2,1,1067.45,famfemale39.jpg
6,1,46,1,2,4,2,1,1111.87,famfemale23.jpg
6,1,47,2,2,2,2,1,748.27,famfemale40.jpg
6,1,48,2,2,3,2,1,568.58,famfemale12.jpg
7,1,1,1,2,4,2,1,666.31,famfemale19.jpg
7,1,2,1,2,3,2,1,628.21,famfemale06.jpg
7,1,3,2,2,1,2,1,702.16,famfemale40.jpg
7,1,4,1,1,4,1,1,1044.14,actor49.jpg
7,1,5,2,1,2,1,1,1118.21,actor12.jpg
7,1,6,2,1,3,1,1,696.11,actor41.jpg
7,1,7,2,2,2,2,1,654.3,famfemale02.jpg
7,1,8,2,1,1,1,1,808.18,actor54.jpg
7,1,9,2,1,2,1,1,674.1,actor19.jpg
7,1,10,1,1,3,1,1,675.96,athlete1.jpg
7,1,11,1,1,1,1,1,605.92,capture027 copy.jpg
7,1,12,2,1,3,1,1,695.82,capture003 copy.jpg
7,1,13,2,2,3,2,1,681.64,famfemale38.jpg
7,1,14,1,1,4,2,0,611.6,athlete28.jpg
7,1,15,1,2,4,2,1,677.53,famfemale26.jpg
7,1,16,1,1,4,1,1,815.43,capture008 copy.jpg
7,1,17,1,1,2,1,1,625.34,actorprac1.jpg
7,1,18,1,1,3,1,1,699.21,actor17.jpg
7,1,19,2,2,3,2,1,693.11,famfemale22.jpg
7,1,20,2,2,4,2,1,671.04,famfemale36.jpg
7,1,21,1,1,2,1,1,832.94,actor53.jpg
7,1,22,1,1,2,1,1,634.86,athlete6.jpg
7,1,23,2,2,2,2,1,636.53,famfemale30.jpg
7,1,24,2,1,1,1,1,718.56,actor9.jpg
7,1,25,2,2,2,2,1,952.49,famfemale34.jpg
7,1,26,1,2,2,2,1,794.47,famfemale32.jpg
7,1,27,1,1,1,1,1,620.34,capture025 copy.jpg
7,1,28,2,2,3,2,1,798.25,famfemale01.jpg
7,1,29,2,1,2,1,1,608.19,actor35.jpg
7,1,30,2,2,1,2,1,682,famfemale39.jpg
7,1,31,2,2,4,2,1,739.98,famfemale08.jpg
7,1,32,1,2,3,2,1,834.17,famfemale29.jpg
7,1,33,2,1,4,1,1,955.97,actor44.jpg
7,1,34,1,2,1,2,1,845.89,famfemale37.jpg
7,1,35,2,1,3,1,1,967.82,athlete13.jpg
7,1,36,1,1,1,1,1,1049.76,actor51.jpg
7,1,37,2,1,4,1,1,851.63,capture026 copy.jpg
7,1,38,2,2,1,2,1,605.48,famfemale21.jpg
7,1,39,1,2,1,2,1,927.41,famfemale24.jpg
7,1,40,2,1,1,1,1,1457.12,actor7.jpg
7,1,41,1,2,2,2,1,795.21,famfemale09.jpg
7,1,42,1,2,4,2,1,669.1,famfemale18.jpg
7,1,43,2,2,4,2,1,767.07,famfemale12.jpg
7,1,44,1,2,1,2,1,632.94,famfemale23.jpg
7,1,45,1,2,3,2,1,826.79,famfemale11.jpg
7,1,46,1,2,2,2,1,708.77,famfemale04.jpg
7,1,47,2,1,4,1,1,922.84,athlete7.jpg
7,1,48,1,1,3,1,1,948.84,actor14.jpg
8,1,1,2,2,1,2,1,886.87,famfemale06.jpg
8,1,2,1,1,1,1,1,2451.23,athlete7.jpg
8,1,3,2,1,3,1,1,2175.39,athlete6.jpg
8,1,4,1,2,1,2,1,2867.97,famfemale30.jpg
8,1,5,1,2,4,2,1,744.38,famfemale02.jpg
8,1,6,1,2,1,2,1,652.66,famfemale08.jpg
8,1,7,2,2,4,2,1,801.12,famfemale24.jpg
8,1,8,2,2,3,2,1,925.4,famfemale18.jpg
8,1,9,2,2,3,2,1,1049.81,famfemale19.jpg
8,1,10,1,1,3,1,1,846.18,actor54.jpg
8,1,11,2,1,2,1,1,1010.5,athlete28.jpg
8,1,12,2,2,1,2,1,1878.97,famfemale29.jpg
8,1,13,1,1,1,2,0,1443.33,capture026 copy.jpg
8,1,14,1,1,1,1,1,903.6,capture003 copy.jpg
8,1,15,2,2,2,2,1,1316.05,famfemale37.jpg
8,1,16,1,1,4,1,1,1128.33,athlete13.jpg
8,1,17,2,1,1,1,1,2972.78,capture008 copy.jpg
8,1,18,1,2,3,2,1,1232.94,famfemale39.jpg
8,1,19,2,1,1,1,1,1365.5,actor14.jpg
8,1,20,2,1,4,1,1,1617.81,capture025 copy.jpg
8,1,21,1,1,3,1,1,1286.18,actor19.jpg
8,1,22,2,2,1,2,1,706.52,famfemale23.jpg
8,1,23,1,2,3,2,1,550.95,famfemale38.jpg
8,1,24,1,1,4,1,1,667.34,actor12.jpg
8,1,25,1,2,2,2,1,919.64,famfemale40.jpg
8,1,26,2,2,4,2,1,1604.09,famfemale04.jpg
8,1,27,2,1,3,1,1,936.35,actor53.jpg
8,1,28,1,1,4,1,1,988.82,actor44.jpg
8,1,29,1,2,1,2,1,569.08,famfemale22.jpg
8,1,30,1,1,3,1,1,1117.55,actor7.jpg
8,1,31,1,2,4,2,1,785.9,famfemale21.jpg
8,1,32,2,2,2,2,1,622.21,famfemale32.jpg
8,1,33,1,1,2,1,1,730.44,actor41.jpg
8,1,34,2,1,2,1,1,894.99,actor49.jpg
8,1,35,2,1,4,1,1,1659.3,actorprac1.jpg
8,1,36,1,1,2,1,1,607.64,actor35.jpg
8,1,37,1,2,2,2,1,572.07,famfemale12.jpg
8,1,38,1,2,3,2,1,816.47,famfemale34.jpg
8,1,39,2,1,4,1,1,1108.79,actor51.jpg
8,1,40,1,1,2,1,1,769.11,actor9.jpg
8,1,41,2,1,2,1,1,1589.5,athlete1.jpg
8,1,42,2,2,4,2,1,1825.86,famfemale09.jpg
8,1,43,2,2,3,2,1,830.29,famfemale26.jpg
8,1,44,1,2,4,2,1,658.63,famfemale36.jpg
8,1,45,2,2,2,2,1,710.98,famfemale11.jpg
8,1,46,2,1,1,1,1,1187.35,actor17.jpg
8,1,47,1,2,2,2,1,631.73,famfemale01.jpg
8,1,48,2,1,3,1,1,675.89,capture027 copy.jpg
9,1,1,2,2,2,2,1,996.72,famfemale23.jpg
9,1,2,2,2,2,2,1,616.97,famfemale24.jpg
9,1,3,2,2,4,2,1,1293.15,famfemale11.jpg
9,1,4,2,1,1,1,1,913.38,actor9.jpg
9,1,5,1,2,4,2,1,629.68,famfemale30.jpg
9,1,6,1,2,3,2,1,1081.89,famfemale21.jpg
9,1,7,2,1,3,1,1,862.15,athlete7.jpg
9,1,8,2,1,1,1,1,818.36,actor54.jpg
9,1,9,2,2,3,2,1,1251.33,famfemale09.jpg
9,1,10,2,1,2,1,1,1234.87,actor44.jpg
9,1,11,1,1,3,1,1,887.18,actorprac1.jpg
9,1,12,2,2,4,2,1,843.4,famfemale29.jpg
9,1,13,1,1,2,1,1,831.44,capture025 copy.jpg
9,1,14,2,2,3,2,1,1035.9,famfemale32.jpg
9,1,15,1,1,1,1,1,704.15,actor51.jpg
9,1,16,1,2,1,2,1,964.42,famfemale40.jpg
9,1,17,2,1,3,1,1,856.62,actor41.jpg
9,1,18,1,1,4,1,1,932.9,capture008 copy.jpg
9,1,19,1,2,3,2,1,1377.14,famfemale38.jpg
9,1,20,2,2,1,2,1,1221.37,famfemale19.jpg
9,1,21,1,1,1,1,1,1129.61,actor53.jpg
9,1,22,1,2,2,2,1,1581.91,famfemale08.jpg
9,1,23,2,1,1,1,1,1026.1,athlete13.jpg
9,1,24,2,1,4,1,1,790.31,capture026 copy.jpg
9,1,25,1,1,3,1,1,730.6,athlete6.jpg
9,1,26,2,1,4,1,1,758.86,actor7.jpg
9,1,27,1,2,2,2,1,731.12,famfemale12.jpg
9,1,28,2,2,4,2,1,807.1,famfemale04.jpg
9,1,29,2,1,4,1,1,1403.58,actor12.jpg
9,1,30,2,2,1,2,1,898.52,famfemale26.jpg
9,1,31,1,1,2,1,1,886.71,athlete1.jpg
9,1,32,1,1,2,1,1,1219.04,athlete28.jpg
9,1,33,1,2,4,2,1,855.3,famfemale02.jpg
9,1,34,1,2,4,2,1,723.52,famfemale22.jpg
9,1,35,1,1,4,1,1,815.76,actor14.jpg
9,1,36,2,1,3,1,1,2580.04,capture003 copy.jpg
9,1,37,2,1,2,1,1,872.28,actor19.jpg
9,1,38,1,2,2,2,1,772.48,famfemale34.jpg
9,1,39,1,1,4,1,1,744.71,actor17.jpg
9,1,40,1,1,1,1,1,757,actor49.jpg
9,1,41,2,2,3,2,1,969.25,famfemale06.jpg
9,1,42,2,2,1,2,1,741.48,famfemale18.jpg
9,1,43,1,2,1,2,1,689.46,famfemale36.jpg
9,1,44,2,2,2,2,1,837.98,famfemale37.jpg
9,1,45,1,2,1,2,1,546.22,famfemale39.jpg
9,1,46,2,1,2,1,1,630.43,actor35.jpg
9,1,47,1,2,3,2,1,642.73,famfemale01.jpg
9,1,48,1,1,3,1,1,734.96,capture027 copy.jpg
10,1,1,1,1,4,1,1,1007.26,actor35.jpg
10,1,2,1,2,4,2,1,643.61,famfemale29.jpg
10,1,3,2,1,3,1,1,559.86,actorprac1.jpg
10,1,4,2,2,2,2,1,796.05,famfemale39.jpg
10,1,5,1,1,2,1,1,688.39,capture026 copy.jpg
10,1,6,1,1,4,1,1,700.59,actor54.jpg
10,1,7,2,2,4,2,1,576.83,famfemale36.jpg
10,1,8,2,1,2,1,1,980.91,capture008 copy.jpg
10,1,9,1,1,3,1,1,793.37,actor9.jpg
10,1,10,2,2,2,2,1,597.62,famfemale30.jpg
10,1,11,1,1,1,1,1,593.96,athlete7.jpg
10,1,12,1,1,2,1,1,486.24,actor19.jpg
10,1,13,2,2,1,2,1,538.5,famfemale22.jpg
10,1,14,1,1,3,1,1,718.71,capture003 copy.jpg
10,1,15,1,2,4,2,1,730.95,famfemale37.jpg
10,1,16,1,2,3,2,1,639.28,famfemale09.jpg
10,1,17,2,2,1,2,1,659.47,famfemale40.jpg
10,1,18,2,1,3,1,1,415.72,athlete28.jpg
10,1,19,2,1,4,1,1,772.07,actor49.jpg
10,1,20,1,1,3,1,1,480.35,actor41.jpg
10,1,21,1,1,1,1,1,692.57,actor12.jpg
10,1,22,1,2,1,2,1,624.83,famfemale19.jpg
10,1,23,1,2,2,2,1,636.89,famfemale24.jpg
10,1,24,2,1,1,1,1,425.35,athlete1.jpg
10,1,25,1,1,1,1,1,469.61,actor7.jpg
10,1,26,2,2,3,2,1,705.92,famfemale01.jpg
10,1,27,1,1,4,1,1,838.15,actor44.jpg
10,1,28,2,1,4,1,1,682.45,actor14.jpg
10,1,29,2,2,3,2,1,670.71,famfemale21.jpg
10,1,30,2,1,2,1,1,714.88,actor17.jpg
10,1,31,2,1,1,1,1,607.22,actor51.jpg
10,1,32,2,1,1,1,1,571.49,capture025 copy.jpg
10,1,33,1,2,3,2,1,743.76,famfemale04.jpg
10,1,34,2,1,2,1,1,859.98,actor53.jpg
10,1,35,1,1,2,1,1,752.28,athlete13.jpg
10,1,36,1,2,2,2,1,588.45,famfemale23.jpg
10,1,37,1,2,1,2,1,912.75,famfemale11.jpg
10,1,38,1,2,1,2,1,572.87,famfemale18.jpg
10,1,39,2,1,4,1,1,1089.31,athlete6.jpg
10,1,40,2,1,3,1,1,645.58,capture027 copy.jpg
10,1,41,2,2,1,2,1,721.77,famfemale02.jpg
10,1,42,1,2,2,2,1,702.12,famfemale26.jpg
10,1,43,2,2,2,2,1,714.29,famfemale34.jpg
10,1,44,1,2,3,2,1,918.63,famfemale06.jpg
10,1,45,2,2,4,2,1,914.84,famfemale12.jpg
10,1,46,2,2,3,2,1,623.16,famfemale38.jpg
10,1,47,2,2,4,2,1,643.44,famfemale08.jpg
10,1,48,1,2,4,2,1,583.67,famfemale32.jpg
11,1,1,1,1,3,1,1,1101.49,actorprac1.jpg
11,1,2,2,2,1,2,1,897.74,famfemale36.jpg
11,1,3,1,2,3,2,1,1054.05,famfemale04.jpg
11,1,4,2,2,2,2,1,962.28,famfemale38.jpg
11,1,5,2,2,4,2,1,950.61,famfemale08.jpg
11,1,6,2,2,1,2,1,994.86,famfemale22.jpg
11,1,7,1,2,2,2,1,1751.18,famfemale26.jpg
11,1,8,1,2,1,2,1,1299.4,famfemale11.jpg
11,1,9,2,2,3,2,1,954.31,famfemale34.jpg
11,1,10,1,1,1,1,1,758.55,actor49.jpg
11,1,11,2,1,4,1,1,994.85,actor9.jpg
11,1,12,2,1,1,1,1,783.09,actor19.jpg
11,1,13,1,2,3,2,1,875.41,famfemale37.jpg
11,1,14,2,1,3,1,1,935.66,actor12.jpg
11,1,15,2,1,4,1,1,963.73,actor54.jpg
11,1,16,2,1,2,1,1,792.16,actor35.jpg
11,1,17,1,2,4,2,1,1212.51,famfemale18.jpg
11,1,18,1,2,4,2,1,704.71,famfemale24.jpg
11,1,19,1,1,4,1,1,789,actor17.jpg
11,1,20,2,2,3,2,1,1593.28,famfemale21.jpg
11,1,21,2,2,3,2,1,1013.54,famfemale39.jpg
11,1,22,2,1,2,1,1,737.79,actor41.jpg
11,1,23,2,1,3,1,1,870.1,capture003 copy.jpg
11,1,24,2,2,2,2,1,634.35,famfemale01.jpg
11,1,25,1,1,3,1,1,654.64,actor51.jpg
11,1,26,1,1,3,1,1,746.89,athlete28.jpg
11,1,27,1,1,1,1,1,647.14,athlete6.jpg
11,1,28,1,1,4,1,1,667.42,actor14.jpg
11,1,29,1,2,2,2,1,1415.66,famfemale29.jpg
11,1,30,2,1,3,1,1,1635.82,actor44.jpg
11,1,31,2,2,4,2,1,920.24,famfemale40.jpg
11,1,32,1,1,4,1,1,780.51,capture025 copy.jpg
11,1,33,2,1,1,1,1,848.76,athlete13.jpg
11,1,34,1,1,1,1,1,629.06,capture027 copy.jpg
11,1,35,2,2,1,2,1,953.33,famfemale02.jpg
11,1,36,1,1,2,1,1,941.53,athlete1.jpg
11,1,37,1,2,4,2,1,1505.85,famfemale23.jpg
11,1,38,1,2,2,2,1,742.12,famfemale32.jpg
11,1,39,1,1,2,1,1,1002.34,capture008 copy.jpg
11,1,40,2,2,4,2,1,854.65,famfemale12.jpg
11,1,41,1,2,1,2,1,674.93,famfemale06.jpg
11,1,42,2,2,2,2,1,871.14,famfemale30.jpg
11,1,43,2,1,2,1,1,635.46,capture026 copy.jpg
11,1,44,2,1,4,1,1,1503.71,actor7.jpg
11,1,45,1,2,3,2,1,747.74,famfemale09.jpg
11,1,46,1,1,2,1,1,1952.3,actor53.jpg
11,1,47,1,2,1,2,1,740.53,famfemale19.jpg
11,1,48,2,1,1,1,1,680.76,athlete7.jpg
12,1,1,1,1,3,1,1,656.79,capture003 copy.jpg
12,1,2,2,2,2,2,1,557.17,famfemale32.jpg
12,1,3,1,1,2,1,1,633.49,actor54.jpg
12,1,4,2,1,3,1,1,597.7,actorprac1.jpg
12,1,5,2,2,3,2,1,682.23,famfemale04.jpg
12,1,6,1,2,4,2,1,630.58,famfemale22.jpg
12,1,7,1,2,1,2,1,610.93,famfemale21.jpg
12,1,8,2,2,1,2,1,519.37,famfemale09.jpg
12,1,9,2,1,1,1,1,547.68,athlete1.jpg
12,1,10,2,1,1,1,1,648.12,capture025 copy.jpg
12,1,11,1,2,3,2,1,604.48,famfemale12.jpg
12,1,12,1,1,4,1,1,568.8,actor19.jpg
12,1,13,1,1,4,1,1,517.14,capture026 copy.jpg
12,1,14,2,2,3,2,1,633.59,famfemale26.jpg
12,1,15,2,1,4,1,1,685.86,athlete28.jpg
12,1,16,2,1,2,1,1,514.31,athlete6.jpg
12,1,17,2,1,4,1,1,662.61,actor14.jpg
12,1,18,2,1,4,1,1,642.96,actor51.jpg
12,1,19,2,2,1,2,1,599.12,famfemale29.jpg
12,1,20,1,1,4,1,1,603.69,actor41.jpg
12,1,21,2,2,1,2,1,752.14,famfemale37.jpg
12,1,22,2,1,2,1,1,508.43,actor49.jpg
12,1,23,1,1,2,1,1,496.88,actor12.jpg
12,1,24,2,2,4,2,1,621.15,famfemale06.jpg
12,1,25,1,1,3,1,1,657.57,actor7.jpg
12,1,26,1,1,1,1,1,533.97,actor9.jpg
12,1,27,1,1,2,1,1,490.25,actor44.jpg
12,1,28,1,2,1,2,1,542.68,famfemale02.jpg
12,1,29,1,2,3,2,1,602.99,famfemale39.jpg
12,1,30,2,1,1,1,1,559.36,actor53.jpg
12,1,31,1,2,2,2,1,507.8,famfemale36.jpg
12,1,32,1,2,4,2,1,488.09,famfemale38.jpg
12,1,33,2,1,2,1,1,452.46,actor17.jpg
12,1,34,2,2,4,2,1,536.72,famfemale24.jpg
12,1,35,1,1,3,1,1,533.2,athlete7.jpg
12,1,36,1,2,2,2,1,441.55,famfemale30.jpg
12,1,37,1,1,1,1,1,710,athlete13.jpg
12,1,38,1,2,1,2,1,610.32,famfemale40.jpg
12,1,39,2,1,3,1,1,662.68,capture027 copy.jpg
12,1,40,1,1,1,1,1,579.1,actor35.jpg
12,1,41,2,2,4,2,1,495.39,famfemale23.jpg
12,1,42,1,2,3,2,1,531.83,famfemale08.jpg
12,1,43,2,1,3,1,1,624.12,capture008 copy.jpg
12,1,44,1,2,2,1,0,708.49,famfemale34.jpg
12,1,45,2,2,3,2,1,1008.95,famfemale11.jpg
12,1,46,2,2,2,2,1,461.23,famfemale18.jpg
12,1,47,1,2,4,2,1,593.61,famfemale01.jpg
12,1,48,2,2,2,2,1,701.96,famfemale19.jpg
13,2,1,2,2,1,0,0,0,unfamfemale01.jpg
13,2,2,2,2,3,2,1,870.8,capture015 copy.jpg
13,2,3,1,2,2,2,1,571.01,unfamfemale39.jpg
13,2,4,1,1,1,1,1,487.57,capture020 copy.jpg
13,2,5,2,1,4,1,1,675.94,unfammale39.jpg
13,2,6,1,2,1,2,1,440.28,unfamfemale06.jpg
13,2,7,1,2,1,2,1,492.67,unfamfemale24.jpg
13,2,8,1,1,3,1,1,545.06,capture003 copy.jpg
13,2,9,2,1,3,1,1,765.41,unfammale38.jpg
13,2,10,1,1,1,1,1,449.75,unfammale12.jpg
13,2,11,1,2,4,2,1,598.16,unfamfemale20.jpg
13,2,12,2,2,2,2,1,506.51,unfamfemale37.jpg
13,2,13,1,2,2,2,1,790.84,unfamfemale15.jpg
13,2,14,1,1,3,1,1,651.22,unfammale33.jpg
13,2,15,2,2,1,2,1,599.57,unfamfemale04.jpg
13,2,16,2,2,3,2,1,579.92,unfamfemale32.jpg
13,2,17,2,1,4,1,1,728.33,capture010 copy.jpg
13,2,18,2,2,4,2,1,524.51,unfamfemale08.jpg
13,2,19,1,2,4,2,1,593.1,capture002 copy.jpg
13,2,20,2,2,4,2,1,653.43,capture021 copy.jpg
13,2,21,1,2,1,2,1,505.84,unfamfemale26.jpg
13,2,22,1,1,3,1,1,502.13,unfammale28.jpg
13,2,23,1,1,4,1,1,514.48,unfammale35.jpg
13,2,24,2,1,2,1,1,582.9,unfammale05.jpg
13,2,25,1,1,2,1,1,611.24,capture012 copy.jpg
13,2,26,1,2,3,2,1,663.58,unfamfemale05.jpg
13,2,27,2,1,4,1,1,748.04,unfammale18.jpg
13,2,28,1,2,4,2,1,544.36,unfamfemale38.jpg
13,2,29,1,2,2,2,1,452.73,unfamfemale03.jpg
13,2,30,2,1,1,1,1,625.14,unfammale19.jpg
13,2,31,2,1,2,1,1,677.42,unfammale25.jpg
13,2,32,1,1,4,1,1,569.81,capture011 copy.jpg
13,2,33,1,1,2,1,1,542.01,capture016 copy.jpg
13,2,34,1,1,2,1,1,482.58,unfammale16.jpg
13,2,35,1,1,1,1,1,582.94,capture013 copy.jpg
13,2,36,1,2,3,2,1,723.29,capture001 copy.jpg
13,2,37,2,1,3,1,1,535.7,unfammale02.jpg
13,2,38,1,1,4,1,1,596.05,unfammale09.jpg
13,2,39,2,2,4,2,1,608.42,unfamfemale40.jpg
13,2,40,2,2,2,2,1,612.76,unfamfemale21.jpg
13,2,41,2,1,1,1,1,681.08,unfammale21.jpg
13,2,42,2,2,1,2,1,565.5,capture005 copy.jpg
13,2,43,2,1,2,1,1,724.54,unfammale08.jpg
13,2,44,2,1,1,1,1,616.88,unfammale23.jpg
13,2,45,2,2,3,1,0,973.22,unfamfemale17.jpg
13,2,46,2,1,3,1,1,641.62,unfammale14.jpg
13,2,47,1,2,3,2,1,685.98,capture017 copy.jpg
13,2,48,2,2,2,2,1,532.86,unfamfemale10.jpg
14,2,1,1,1,1,1,1,715.79,unfammale08.jpg
14,2,2,2,2,2,2,1,722.93,capture005 copy.jpg
14,2,3,2,2,2,2,1,559.21,unfamfemale17.jpg
14,2,4,1,2,4,2,1,635.41,unfamfemale38.jpg
14,2,5,1,2,1,2,1,607.68,capture001 copy.jpg
14,2,6,1,2,3,2,1,620.01,capture002 copy.jpg
14,2,7,2,1,3,1,1,672.25,capture012 copy.jpg
14,2,8,1,2,2,2,1,428.47,unfamfemale39.jpg
14,2,9,2,1,3,1,1,480.74,unfammale16.jpg
14,2,10,2,1,4,1,1,805.02,capture013 copy.jpg
14,2,11,2,2,4,2,1,561.31,capture015 copy.jpg
14,2,12,1,1,2,1,1,573.64,unfammale25.jpg
14,2,13,2,1,1,1,1,513.85,unfammale12.jpg
14,2,14,1,1,4,1,1,654.14,unfammale18.jpg
14,2,15,1,1,2,1,1,546.37,unfammale19.jpg
14,2,16,1,2,1,2,1,414.46,unfamfemale26.jpg
14,2,17,2,2,1,2,1,506.93,unfamfemale01.jpg
14,2,18,1,1,2,1,1,527.17,unfammale23.jpg
14,2,19,1,1,4,1,1,899.45,unfammale38.jpg
14,2,20,1,1,1,1,1,607.77,unfammale39.jpg
14,2,21,1,1,3,1,1,684,unfammale14.jpg
14,2,22,2,2,4,2,1,840.29,unfamfemale21.jpg
14,2,23,2,1,2,1,1,764.52,capture011 copy.jpg
14,2,24,2,1,1,1,1,720.75,unfammale09.jpg
14,2,25,1,2,2,2,1,573.06,unfamfemale03.jpg
14,2,26,2,1,2,1,1,729.32,unfammale28.jpg
14,2,27,1,1,4,1,1,685.59,unfammale21.jpg
14,2,28,2,1,4,1,1,721.85,unfammale33.jpg
14,2,29,2,2,2,2,1,702.15,unfamfemale32.jpg
14,2,30,2,2,1,0,0,0,capture021 copy.jpg
14,2,31,2,1,3,1,1,686.41,unfammale35.jpg
14,2,32,2,1,4,1,1,570.94,capture016 copy.jpg
14,2,33,1,1,1,1,1,1511.24,capture010 copy.jpg
14,2,34,1,1,3,1,1,963.52,unfammale05.jpg
14,2,35,1,2,3,2,1,1047.71,unfamfemale05.jpg
14,2,36,2,2,4,2,1,859.97,unfamfemale37.jpg
14,2,37,2,2,1,2,1,648.25,unfamfemale40.jpg
14,2,38,1,2,4,2,1,740.49,capture017 copy.jpg
14,2,39,1,2,1,2,1,568.75,unfamfemale15.jpg
14,2,40,1,2,3,2,1,637.05,unfamfemale24.jpg
14,2,41,2,1,1,1,1,761.29,capture003 copy.jpg
14,2,42,2,2,3,2,1,701.63,unfamfemale04.jpg
14,2,43,1,2,2,2,1,737.85,unfamfemale06.jpg
14,2,44,2,1,2,1,1,694.15,capture020 copy.jpg
14,2,45,1,2,4,2,1,626.4,unfamfemale20.jpg
14,2,46,1,1,3,1,1,670.44,unfammale02.jpg
14,2,47,2,2,3,2,1,754.93,unfamfemale08.jpg
14,2,48,2,2,3,2,1,630.95,unfamfemale10.jpg
15,2,1,1,2,2,2,1,1071.04,capture015 copy.jpg
15,2,2,1,2,2,2,1,659.47,capture005 copy.jpg
15,2,3,2,2,3,2,1,895.84,unfamfemale24.jpg
15,2,4,1,1,1,1,1,676.19,capture012 copy.jpg
15,2,5,2,1,1,1,1,472.58,unfammale02.jpg
15,2,6,1,1,4,1,1,932.87,capture011 copy.jpg
15,2,7,2,1,3,1,1,1433.34,capture010 copy.jpg
15,2,8,1,2,3,2,1,821.4,capture021 copy.jpg
15,2,9,1,1,4,1,1,906.07,unfammale12.jpg
15,2,10,2,2,4,2,1,854.38,unfamfemale38.jpg
15,2,11,2,1,4,1,1,1098.77,unfammale39.jpg
15,2,12,2,1,2,1,1,1375.15,unfammale21.jpg
15,2,13,1,2,1,2,1,795.43,unfamfemale21.jpg
15,2,14,2,1,1,1,1,1127.87,unfammale19.jpg
15,2,15,2,2,3,2,1,908.22,unfamfemale06.jpg
15,2,16,1,1,2,1,1,744.62,unfammale33.jpg
15,2,17,2,2,1,2,1,828.99,unfamfemale26.jpg
15,2,18,1,1,2,1,1,737.32,capture016 copy.jpg
15,2,19,1,1,2,1,1,693.63,unfammale28.jpg
15,2,20,1,1,1,1,1,777.99,capture020 copy.jpg
15,2,21,2,2,3,2,1,782.45,unfamfemale05.jpg
15,2,22,1,2,4,2,1,946.78,unfamfemale17.jpg
15,2,23,2,1,4,1,1,814.98,unfammale14.jpg
15,2,24,2,2,4,2,1,755.5,capture001 copy.jpg
15,2,25,2,1,4,1,1,863.86,unfammale18.jpg
15,2,26,1,2,2,2,1,1036.28,unfamfemale01.jpg
15,2,27,1,2,3,2,1,1008.63,unfamfemale10.jpg
15,2,28,1,1,3,1,1,772.99,unfammale09.jpg
15,2,29,2,2,2,2,1,705.37,capture002 copy.jpg
15,2,30,2,2,1,2,1,773.73,capture017 copy.jpg
15,2,31,2,1,2,1,1,1410.13,unfammale38.jpg
15,2,32,2,2,1,2,1,1150.42,unfamfemale20.jpg
15,2,33,1,1,1,1,1,706.77,unfammale16.jpg
15,2,34,2,2,2,2,1,1143.17,unfamfemale39.jpg
15,2,35,2,1,3,1,1,939.56,unfammale25.jpg
15,2,36,1,2,1,2,1,695.94,unfamfemale40.jpg
15,2,37,2,1,3,1,1,932.26,unfammale08.jpg
15,2,38,1,1,3,1,1,976.4,capture003 copy.jpg
15,2,39,2,2,2,2,1,941.02,unfamfemale15.jpg
15,2,40,1,2,4,2,1,881.37,unfamfemale32.jpg
15,2,41,1,1,4,1,1,789.69,unfammale35.jpg
15,2,42,1,1,3,1,1,1010.11,capture013 copy.jpg
15,2,43,1,2,1,2,1,774.48,unfamfemale37.jpg
15,2,44,2,1,2,1,1,1058.78,unfammale23.jpg
15,2,45,1,2,4,2,1,663.15,unfamfemale08.jpg
15,2,46,1,2,3,2,1,747.57,unfamfemale04.jpg
15,2,47,2,2,4,2,1,1335.97,unfamfemale03.jpg
15,2,48,2,1,1,1,1,612.26,unfammale05.jpg
16,2,1,2,1,3,1,1,1064.23,unfammale35.jpg
16,2,2,2,1,1,1,1,1012.49,unfammale09.jpg
16,2,3,2,1,2,1,1,936.73,unfammale16.jpg
16,2,4,1,2,1,2,1,884.84,unfamfemale01.jpg
16,2,5,2,2,4,2,1,721.25,unfamfemale15.jpg
16,2,6,1,1,4,1,1,821.55,unfammale18.jpg
16,2,7,1,1,2,1,1,1177.78,unfammale02.jpg
16,2,8,1,1,4,1,1,886.05,unfammale14.jpg
16,2,9,1,2,4,2,1,746.36,unfamfemale04.jpg
16,2,10,2,1,2,1,1,870.62,capture011 copy.jpg
16,2,11,1,1,2,1,1,1202.92,unfammale25.jpg
16,2,12,1,2,4,2,1,863.09,unfamfemale08.jpg
16,2,13,1,1,1,1,1,811.44,unfammale38.jpg
16,2,14,1,2,3,2,1,919.66,unfamfemale40.jpg
16,2,15,1,1,3,1,1,699.92,unfammale23.jpg
16,2,16,2,2,1,2,1,872.23,unfamfemale39.jpg
16,2,17,2,2,4,2,1,700.43,unfamfemale05.jpg
16,2,18,2,1,3,1,1,840.68,capture012 copy.jpg
16,2,19,1,1,1,1,1,668.77,unfammale05.jpg
16,2,20,2,2,4,2,1,705.27,unfamfemale26.jpg
16,2,21,2,2,3,2,1,813.46,capture002 copy.jpg
16,2,22,1,2,1,2,1,1161.83,unfamfemale32.jpg
16,2,23,1,1,1,1,1,630.05,unfammale39.jpg
16,2,24,1,1,2,1,1,978.34,unfammale21.jpg
16,2,25,2,2,2,2,1,878.53,unfamfemale06.jpg
16,2,26,1,1,4,1,1,1322.87,capture010 copy.jpg
16,2,27,1,2,4,2,1,735.14,unfamfemale10.jpg
16,2,28,1,2,2,2,1,771.38,capture021 copy.jpg
16,2,29,1,2,1,2,1,679.63,capture005 copy.jpg
16,2,30,1,1,3,1,1,723.9,unfammale08.jpg
16,2,31,1,1,3,1,1,816.18,unfammale19.jpg
16,2,32,2,2,2,2,1,884.44,unfamfemale03.jpg
16,2,33,2,1,4,1,1,896.63,unfammale28.jpg
16,2,34,2,2,1,2,1,748.73,capture001 copy.jpg
16,2,35,2,1,4,1,1,953.24,capture013 copy.jpg
16,2,36,1,2,2,2,1,1029.48,unfamfemale37.jpg
16,2,37,2,1,1,1,1,857.71,capture003 copy.jpg
16,2,38,2,1,4,1,1,830,unfammale33.jpg
16,2,39,2,1,3,1,1,658.26,unfammale12.jpg
16,2,40,2,1,1,1,1,918.55,capture016 copy.jpg
16,2,41,1,2,3,2,1,906.79,unfamfemale17.jpg
16,2,42,2,2,3,2,1,1111.08,unfamfemale24.jpg
16,2,43,2,2,1,2,1,971.35,unfamfemale38.jpg
16,2,44,2,1,2,1,1,999.57,capture020 copy.jpg
16,2,45,2,2,3,2,1,907.86,capture017 copy.jpg
16,2,46,2,2,2,2,1,672.13,unfamfemale20.jpg
16,2,47,1,2,2,2,1,756.39,unfamfemale21.jpg
16,2,48,1,2,3,2,1,968.67,capture015 copy.jpg
17,2,1,1,2,4,2,1,1136.34,capture002 copy.jpg
17,2,2,2,1,3,1,1,684.69,unfammale05.jpg
17,2,3,1,1,2,1,1,761.03,unfammale35.jpg
17,2,4,1,2,4,2,1,789.4,unfamfemale03.jpg
17,2,5,1,2,2,2,1,689.71,unfamfemale05.jpg
17,2,6,1,1,3,1,1,766.12,unfammale12.jpg
17,2,7,2,1,3,1,1,738.52,unfammale25.jpg
17,2,8,1,2,3,2,1,678.8,capture001 copy.jpg
17,2,9,2,2,2,2,1,651.2,unfamfemale37.jpg
17,2,10,2,2,4,2,1,687.37,capture021 copy.jpg
17,2,11,1,2,2,2,1,675.92,unfamfemale38.jpg
17,2,12,2,2,2,2,1,616.31,unfamfemale32.jpg
17,2,13,1,1,1,1,1,908.64,unfammale33.jpg
17,2,14,1,1,2,1,1,1201.01,unfammale09.jpg
17,2,15,2,2,2,2,1,589.4,unfamfemale10.jpg
17,2,16,1,2,3,2,1,1497.81,capture017 copy.jpg
17,2,17,1,2,1,2,1,742.18,unfamfemale06.jpg
17,2,18,2,2,1,2,1,634.52,unfamfemale04.jpg
17,2,19,1,1,2,1,1,718.93,capture011 copy.jpg
17,2,20,2,2,3,2,1,875.24,unfamfemale01.jpg
17,2,21,1,1,1,1,1,559.65,capture012 copy.jpg
17,2,22,1,1,3,1,1,772.02,capture020 copy.jpg
17,2,23,1,1,4,1,1,1176.36,unfammale16.jpg
17,2,24,1,1,4,1,1,636.72,capture003 copy.jpg
17,2,25,2,2,3,2,1,760.82,unfamfemale17.jpg
17,2,26,1,2,1,2,1,637.48,unfamfemale24.jpg
17,2,27,2,1,1,1,1,873.76,unfammale14.jpg
17,2,28,2,1,1,1,1,718.19,unfammale39.jpg
17,2,29,1,2,3,2,1,962.5,unfamfemale26.jpg
17,2,30,1,2,4,2,1,1166.91,unfamfemale15.jpg
17,2,31,1,2,1,2,1,747.25,unfamfemale39.jpg
17,2,32,2,1,2,1,1,599.66,unfammale08.jpg
17,2,33,1,1,4,1,1,1124.01,capture016 copy.jpg
17,2,34,2,2,1,2,1,616.37,capture015 copy.jpg
17,2,35,2,1,2,1,1,764.78,unfammale23.jpg
17,2,36,1,1,1,1,1,681.08,capture013 copy.jpg
17,2,37,1,2,2,2,1,661.51,unfamfemale20.jpg
17,2,38,2,1,1,1,1,841.89,unfammale02.jpg
17,2,39,2,2,3,2,1,830.18,unfamfemale08.jpg
17,2,40,2,1,2,1,1,690.31,capture010 copy.jpg
17,2,41,2,2,1,2,1,1062.92,unfamfemale21.jpg
17,2,42,2,2,4,2,1,635.29,capture005 copy.jpg
17,2,43,2,1,4,1,1,799.65,unfammale21.jpg
17,2,44,2,1,4,1,1,812.01,unfammale18.jpg
17,2,45,2,1,4,1,1,648.38,unfammale38.jpg
17,2,46,1,1,3,1,1,564.71,unfammale28.jpg
17,2,47,2,1,3,1,1,641.17,unfammale19.jpg
17,2,48,2,2,4,2,1,877.52,unfamfemale40.jpg
18,2,1,2,2,2,2,1,1879.19,unfamfemale38.jpg
18,2,2,1,1,1,1,1,739.6,unfammale09.jpg
18,2,3,1,2,3,2,1,759.74,capture021 copy.jpg
18,2,4,1,2,3,2,1,1140.38,unfamfemale17.jpg
18,2,5,2,1,1,1,1,680.7,unfammale02.jpg
18,2,6,2,2,4,2,1,653.08,capture017 copy.jpg
18,2,7,2,2,1,2,1,601.39,unfamfemale24.jpg
18,2,8,2,2,1,2,1,557.76,unfamfemale06.jpg
18,2,9,1,2,4,2,1,578.14,unfamfemale01.jpg
18,2,10,1,2,2,2,1,438.48,unfamfemale10.jpg
18,2,11,1,2,1,2,1,442.87,unfamfemale08.jpg
18,2,12,2,2,3,2,1,655.22,unfamfemale26.jpg
18,2,13,1,1,4,1,1,651.61,unfammale12.jpg
18,2,14,1,1,4,1,1,551.93,capture016 copy.jpg
18,2,15,1,1,2,1,1,684.35,capture012 copy.jpg
18,2,16,2,2,3,1,0,760.67,unfamfemale39.jpg
18,2,17,1,1,3,1,1,845.12,unfammale16.jpg
18,2,18,1,2,4,2,1,561.22,unfamfemale21.jpg
18,2,19,1,1,4,1,1,637.82,unfammale35.jpg
18,2,20,2,2,1,2,1,626.17,capture001 copy.jpg
18,2,21,2,1,1,1,1,718.54,unfammale18.jpg
18,2,22,2,1,3,1,1,922.91,unfammale39.jpg
18,2,23,1,2,1,2,1,759.23,capture015 copy.jpg
18,2,24,2,2,2,2,1,595.67,unfamfemale05.jpg
18,2,25,2,1,2,1,1,703.97,unfammale25.jpg
18,2,26,1,1,3,1,1,620.33,unfammale28.jpg
18,2,27,1,1,1,1,1,448.72,capture013 copy.jpg
18,2,28,2,2,3,2,1,693.16,unfamfemale03.jpg
18,2,29,2,1,4,1,1,657.53,unfammale14.jpg
18,2,30,1,1,2,1,1,485.85,capture003 copy.jpg
18,2,31,2,1,2,1,1,682.21,unfammale23.jpg
18,2,32,1,1,1,1,1,758.59,unfammale33.jpg
18,2,33,2,1,1,1,1,1010.72,unfammale21.jpg
18,2,34,2,1,4,1,1,935.29,unfammale08.jpg
18,2,35,1,2,3,2,1,683.66,unfamfemale37.jpg
18,2,36,1,2,2,2,1,728,capture005 copy.jpg
18,2,37,2,2,4,2,1,788.45,unfamfemale15.jpg
18,2,38,2,2,2,2,1,680.73,capture002 copy.jpg
18,2,39,1,2,2,2,1,997.16,unfamfemale04.jpg
18,2,40,2,1,4,1,1,1009.46,unfammale38.jpg
18,2,41,2,1,2,1,1,749.83,unfammale19.jpg
18,2,42,1,1,3,1,1,770.23,capture011 copy.jpg
18,2,43,1,2,4,2,1,510.63,unfamfemale40.jpg
18,2,44,2,2,4,2,1,1186.99,unfamfemale20.jpg
18,2,45,2,1,3,1,1,535.29,capture010 copy.jpg
18,2,46,2,1,3,1,1,739.68,unfammale05.jpg
18,2,47,1,2,1,2,1,592.02,unfamfemale32.jpg
18,2,48,1,1,2,1,1,692.23,capture020 copy.jpg
19,2,1,1,2,3,2,1,844.96,unfamfemale01.jpg
19,2,2,2,1,3,1,1,585.2,unfammale09.jpg
19,2,3,2,2,2,2,1,1109.49,unfamfemale39.jpg
19,2,4,2,1,2,1,1,1161.72,capture012 copy.jpg
19,2,5,1,2,4,2,1,1029.93,unfamfemale40.jpg
19,2,6,2,1,1,1,1,722.18,unfammale16.jpg
19,2,7,2,1,2,1,1,670.23,capture020 copy.jpg
19,2,8,1,2,2,2,1,714.59,unfamfemale32.jpg
19,2,9,1,1,2,1,1,734.69,unfammale18.jpg
19,2,10,2,1,2,1,1,555.09,unfammale35.jpg
19,2,11,1,1,4,2,0,929.99,unfammale38.jpg
19,2,12,2,2,4,2,1,910.31,unfamfemale38.jpg
19,2,13,1,2,1,2,1,962.55,capture005 copy.jpg
19,2,14,2,2,2,2,1,1398.77,capture017 copy.jpg
19,2,15,1,1,1,1,1,979.05,unfammale21.jpg
19,2,16,2,1,1,1,1,623.25,unfammale28.jpg
19,2,17,2,2,1,2,1,1579.53,unfamfemale05.jpg
19,2,18,2,1,4,1,1,863.73,unfammale33.jpg
19,2,19,1,2,3,2,1,795.91,unfamfemale17.jpg
19,2,20,2,2,1,2,1,1504.18,unfamfemale03.jpg
19,2,21,2,2,4,2,1,876.45,unfamfemale26.jpg
19,2,22,2,1,4,1,1,856.48,capture016 copy.jpg
19,2,23,1,2,2,2,1,620.98,capture015 copy.jpg
19,2,24,1,2,4,2,1,912.99,unfamfemale08.jpg
19,2,25,2,2,3,2,1,1261.46,capture001 copy.jpg
19,2,26,2,1,3,1,1,793.71,unfammale12.jpg
19,2,27,1,2,1,2,1,1069.89,unfamfemale21.jpg
19,2,28,2,2,1,2,1,514.14,capture002 copy.jpg
19,2,29,1,2,2,2,1,606.33,unfamfemale10.jpg
19,2,30,1,1,3,1,1,770.63,unfammale02.jpg
19,2,31,1,1,1,1,1,854.85,unfammale05.jpg
19,2,32,1,2,3,2,1,667.14,unfamfemale04.jpg
19,2,33,2,2,3,2,1,943.34,unfamfemale20.jpg
19,2,34,1,1,2,1,1,1371.58,unfammale08.jpg
19,2,35,2,2,2,2,1,1223.81,unfamfemale24.jpg
19,2,36,1,1,3,1,1,1028.04,unfammale23.jpg
19,2,37,2,2,3,2,1,856.1,unfamfemale06.jpg
19,2,38,1,1,2,1,1,852.59,capture010 copy.jpg
19,2,39,1,2,1,2,1,928.64,capture021 copy.jpg
19,2,40,1,2,4,2,1,1221.1,unfamfemale37.jpg
19,2,41,2,1,4,1,1,945.31,capture003 copy.jpg
19,2,42,1,1,1,1,1,645.59,unfammale39.jpg
19,2,43,1,1,3,1,1,793.76,unfammale25.jpg
19,2,44,2,1,1,1,1,654.01,capture013 copy.jpg
19,2,45,2,1,3,1,1,658.31,capture011 copy.jpg
19,2,46,2,2,4,2,1,606.54,unfamfemale15.jpg
19,2,47,1,1,4,1,1,650.77,unfammale19.jpg
19,2,48,1,1,4,1,1,470.95,unfammale14.jpg
20,2,1,2,2,3,2,1,1957.46,unfamfemale37.jpg
20,2,2,1,2,3,2,1,1457.8,unfamfemale05.jpg
20,2,3,1,1,2,1,1,1454.22,capture003 copy.jpg
20,2,4,1,2,4,2,1,1330.53,unfamfemale24.jpg
20,2,5,2,1,2,1,1,1166.95,unfammale21.jpg
20,2,6,1,1,2,1,1,891.33,unfammale09.jpg
20,2,7,1,2,3,2,1,1543.69,capture001 copy.jpg
20,2,8,1,1,4,1,1,1332.08,capture013 copy.jpg
20,2,9,2,2,3,2,1,904.36,capture005 copy.jpg
20,2,10,2,1,1,1,1,1012.76,unfammale18.jpg
20,2,11,1,1,1,1,1,1177.15,unfammale28.jpg
20,2,12,2,2,2,2,1,1005.49,capture015 copy.jpg
20,2,13,1,1,3,1,1,1545.87,capture011 copy.jpg
20,2,14,1,2,1,2,1,830.02,capture017 copy.jpg
20,2,15,2,1,4,1,1,1074.56,unfammale25.jpg
20,2,16,2,1,1,1,1,1230.96,unfammale39.jpg
20,2,17,2,1,2,1,1,731.29,capture010 copy.jpg
20,2,18,1,1,2,1,1,759.69,unfammale35.jpg
20,2,19,2,2,4,2,1,980.06,unfamfemale32.jpg
20,2,20,1,2,2,2,1,1064.43,unfamfemale03.jpg
20,2,21,1,1,3,1,1,916.79,unfammale12.jpg
20,2,22,2,1,3,1,1,1025.13,unfammale19.jpg
20,2,23,1,2,4,2,1,845.5,capture002 copy.jpg
20,2,24,1,2,4,2,1,945.88,unfamfemale38.jpg
20,2,25,2,1,3,1,1,838.21,unfammale14.jpg
20,2,26,1,2,3,2,1,1010.57,unfamfemale39.jpg
20,2,27,1,2,1,2,1,822.89,unfamfemale26.jpg
20,2,28,1,1,1,1,1,699.29,unfammale33.jpg
20,2,29,2,1,4,1,1,831.44,unfammale08.jpg
20,2,30,2,1,3,1,1,796.03,unfammale02.jpg
20,2,31,2,1,1,1,1,664.36,unfammale05.jpg
20,2,32,2,2,4,2,1,916.78,unfamfemale17.jpg
20,2,33,1,1,1,1,1,833.16,capture012 copy.jpg
20,2,34,2,2,3,2,1,693.43,unfamfemale10.jpg
20,2,35,1,1,3,1,1,697.89,capture020 copy.jpg
20,2,36,2,1,2,1,1,886.26,unfammale23.jpg
20,2,37,1,2,1,2,1,1130.62,unfamfemale20.jpg
20,2,38,2,2,1,2,1,726.96,unfamfemale40.jpg
20,2,39,2,2,2,2,1,931.26,capture021 copy.jpg
20,2,40,1,2,2,2,1,623.66,unfamfemale06.jpg
20,2,41,1,2,2,2,1,1172.04,unfamfemale15.jpg
20,2,42,2,1,4,1,1,904.34,unfammale38.jpg
20,2,43,1,1,4,1,1,1012.79,unfammale16.jpg
20,2,44,2,2,4,2,1,800.88,unfamfemale04.jpg
20,2,45,2,2,1,2,1,709.45,unfamfemale01.jpg
20,2,46,2,2,1,2,1,665.82,unfamfemale21.jpg
20,2,47,2,2,2,2,1,878.23,unfamfemale08.jpg
20,2,48,1,1,4,1,1,1026.53,capture016 copy.jpg
21,2,1,2,2,3,2,1,1629.19,unfamfemale01.jpg
21,2,2,1,2,2,2,1,593.47,capture002 copy.jpg
21,2,3,2,1,1,1,1,525.69,capture016 copy.jpg
21,2,4,2,1,1,1,1,481.93,unfammale16.jpg
21,2,5,2,1,4,1,1,661.82,capture013 copy.jpg
21,2,6,2,1,2,1,1,538.21,unfammale35.jpg
21,2,7,2,1,3,1,1,454.65,unfammale09.jpg
21,2,8,2,1,3,1,1,722.9,capture003 copy.jpg
21,2,9,1,1,2,0,0,0,unfammale39.jpg
21,2,10,2,1,1,0,0,0,capture011 copy.jpg
21,2,11,1,1,4,1,1,1039.67,unfammale38.jpg
21,2,12,2,2,3,2,1,635.9,capture021 copy.jpg
21,2,13,1,2,4,2,1,616.14,unfamfemale05.jpg
21,2,14,2,2,4,2,1,428.37,capture005 copy.jpg
21,2,15,2,1,4,0,0,0,capture020 copy.jpg
21,2,16,1,1,3,1,1,588.83,unfammale18.jpg
21,2,17,1,2,1,1,0,393.06,unfamfemale03.jpg
21,2,18,2,2,2,2,1,645.31,unfamfemale17.jpg
21,2,19,1,1,3,1,1,745.57,unfammale02.jpg
21,2,20,1,1,3,1,1,741.8,unfammale05.jpg
21,2,21,1,2,2,2,1,761.84,unfamfemale15.jpg
21,2,22,1,1,2,1,1,886.24,unfammale08.jpg
21,2,23,1,2,4,2,1,1010.56,unfamfemale20.jpg
21,2,24,1,2,3,2,1,718.78,unfamfemale24.jpg
21,2,25,1,2,3,2,1,842.98,capture001 copy.jpg
21,2,26,2,2,4,2,1,863.24,unfamfemale37.jpg
21,2,27,1,2,1,2,1,755.53,unfamfemale06.jpg
21,2,28,2,2,2,2,1,631.68,unfamfemale32.jpg
21,2,29,2,2,3,2,1,1606.68,unfamfemale21.jpg
21,2,30,1,2,2,2,1,466.93,unfamfemale26.jpg
21,2,31,1,1,1,2,0,727.14,unfammale21.jpg
21,2,32,2,2,4,2,1,587.32,unfamfemale40.jpg
21,2,33,2,1,3,1,1,735.62,unfammale28.jpg
21,2,34,1,1,1,1,1,555.86,capture010 copy.jpg
21,2,35,1,2,4,2,1,728.13,capture017 copy.jpg
21,2,36,1,2,1,2,1,892.13,unfamfemale38.jpg
21,2,37,2,2,1,2,1,680.27,capture015 copy.jpg
21,2,38,1,1,4,1,1,788.81,unfammale19.jpg
21,2,39,2,2,1,2,1,1073.1,unfamfemale04.jpg
21,2,40,2,1,4,0,0,0,unfammale33.jpg
21,2,41,2,2,2,2,1,1577.61,unfamfemale08.jpg
21,2,42,2,2,1,2,1,973.76,unfamfemale10.jpg
21,2,43,1,1,2,1,1,890.09,unfammale14.jpg
21,2,44,2,1,2,1,1,342.23,capture012 copy.jpg
21,2,45,2,1,2,0,0,0,unfammale12.jpg
21,2,46,1,1,4,1,1,702.79,unfammale23.jpg
21,2,47,1,2,3,2,1,859.05,unfamfemale39.jpg
21,2,48,1,1,1,1,1,1127.28,unfammale25.jpg
22,2,1,1,1,4,1,1,1244.58,unfammale28.jpg
22,2,2,2,1,3,1,1,768.81,unfammale25.jpg
22,2,3,2,1,1,1,1,909.01,unfammale38.jpg
22,2,4,1,2,1,2,1,601.28,capture021 copy.jpg
22,2,5,1,2,1,2,1,509.48,unfamfemale21.jpg
22,2,6,2,1,4,1,1,673.77,unfammale19.jpg
22,2,7,2,1,1,1,1,646.03,unfammale08.jpg
22,2,8,1,1,2,1,1,658.28,unfammale09.jpg
22,2,9,2,1,4,1,1,614.56,capture010 copy.jpg
22,2,10,2,2,4,2,1,546.75,unfamfemale20.jpg
22,2,11,2,2,2,2,1,519.03,unfamfemale06.jpg
22,2,12,2,2,3,2,1,781.97,unfamfemale26.jpg
22,2,13,1,1,1,1,1,570.18,unfammale12.jpg
22,2,14,1,2,4,2,1,622.2,unfamfemale01.jpg
22,2,15,1,2,3,2,1,618.67,unfamfemale32.jpg
22,2,16,1,2,2,2,1,550.9,unfamfemale40.jpg
22,2,17,2,1,3,1,1,587.19,unfammale18.jpg
22,2,18,2,2,1,2,1,743.45,capture001 copy.jpg
22,2,19,2,1,3,1,1,659.68,unfammale02.jpg
22,2,20,1,2,4,2,1,655.93,unfamfemale17.jpg
22,2,21,2,1,4,1,1,892.13,unfammale21.jpg
22,2,22,1,2,3,2,1,544.42,unfamfemale04.jpg
22,2,23,2,2,2,2,1,508.65,unfamfemale38.jpg
22,2,24,2,1,2,1,1,552.9,unfammale05.jpg
22,2,25,2,2,4,2,1,789.13,unfamfemale24.jpg
22,2,26,1,1,3,1,1,593.34,capture013 copy.jpg
22,2,27,1,1,4,1,1,573.61,unfammale33.jpg
22,2,28,2,2,1,2,1,585.85,unfamfemale05.jpg
22,2,29,1,2,3,2,1,573.89,unfamfemale10.jpg
22,2,30,2,1,1,1,1,682.39,unfammale14.jpg
22,2,31,2,2,3,2,1,734.63,unfamfemale39.jpg
22,2,32,1,2,4,2,1,570.88,capture005 copy.jpg
22,2,33,1,1,3,1,1,575.12,unfammale16.jpg
22,2,34,2,2,1,2,1,651.37,unfamfemale03.jpg
22,2,35,1,1,3,1,1,695.61,capture016 copy.jpg
22,2,36,2,1,2,1,1,963.84,unfammale23.jpg
22,2,37,1,2,2,2,1,504.08,unfamfemale08.jpg
22,2,38,1,1,2,1,1,604.33,capture003 copy.jpg
22,2,39,1,2,2,2,1,576.5,unfamfemale37.jpg
22,2,40,2,1,2,1,1,780.78,unfammale39.jpg
22,2,41,2,2,2,2,1,545.06,capture017 copy.jpg
22,2,42,1,1,4,1,1,789.25,capture012 copy.jpg
22,2,43,1,1,2,1,1,601.49,capture011 copy.jpg
22,2,44,2,2,3,2,1,573.59,capture002 copy.jpg
22,2,45,1,1,1,1,1,529.98,unfammale35.jpg
22,2,46,1,2,1,2,1,542.3,capture015 copy.jpg
22,2,47,2,2,4,2,1,706.53,unfamfemale15.jpg
22,2,48,1,1,1,1,1,558.77,capture020 copy.jpg
23,2,1,2,1,3,1,1,1641.38,unfammale12.jpg
23,2,2,2,1,4,2,0,901.7,unfammale16.jpg
23,2,3,1,2,3,2,1,858.09,capture005 copy.jpg
23,2,4,1,1,2,1,1,710.44,unfammale14.jpg
23,2,5,2,1,3,1,1,1162.74,unfammale09.jpg
23,2,6,2,1,1,1,1,1231.13,unfammale33.jpg
23,2,7,1,2,2,2,1,731.54,unfamfemale37.jpg
23,2,8,2,2,1,1,0,631.84,unfamfemale20.jpg
23,2,9,2,2,4,2,1,588.23,unfamfemale26.jpg
23,2,10,1,2,2,2,1,664.64,unfamfemale21.jpg
23,2,11,2,2,3,1,0,1124.96,unfamfemale39.jpg
23,2,12,1,2,1,2,1,649.34,capture015 copy.jpg
23,2,13,2,2,3,2,1,725.66,unfamfemale03.jpg
23,2,14,1,1,1,1,1,705.86,unfammale39.jpg
23,2,15,2,1,1,1,1,574.39,capture020 copy.jpg
23,2,16,2,2,3,2,1,506.78,unfamfemale06.jpg
23,2,17,1,2,2,2,1,487.13,unfamfemale32.jpg
23,2,18,1,1,3,1,1,595.54,unfammale18.jpg
23,2,19,2,2,2,2,1,631.9,unfamfemale24.jpg
23,2,20,2,2,4,2,1,964.25,capture001 copy.jpg
23,2,21,2,1,4,2,0,352.61,unfammale28.jpg
23,2,22,2,2,2,2,1,564.96,unfamfemale15.jpg
23,2,23,1,2,4,2,1,1089.31,unfamfemale08.jpg
23,2,24,1,2,3,2,1,1237.73,capture021 copy.jpg
23,2,25,2,2,2,2,1,634.09,unfamfemale05.jpg
23,2,26,1,1,1,1,1,830.44,unfammale38.jpg
23,2,27,1,1,2,1,1,786.78,unfammale21.jpg
23,2,28,2,2,4,2,1,615.15,capture002 copy.jpg
23,2,29,2,1,3,1,1,1131.34,unfammale35.jpg
23,2,30,1,2,4,2,1,1071.9,unfamfemale40.jpg
23,2,31,2,1,2,1,1,790.97,capture003 copy.jpg
23,2,32,1,2,1,2,1,667.31,unfamfemale17.jpg
23,2,33,1,1,1,1,1,487.62,unfammale08.jpg
23,2,34,1,2,4,2,1,340.01,unfamfemale10.jpg
23,2,35,2,2,1,1,0,320.37,capture017 copy.jpg
23,2,36,1,2,1,2,1,636.78,unfamfemale04.jpg
23,2,37,1,1,2,1,1,569.08,unfammale05.jpg
23,2,38,2,2,1,2,1,573.46,unfamfemale38.jpg
23,2,39,1,1,4,2,0,457.86,unfammale02.jpg
23,2,40,2,1,1,2,0,566.22,capture013 copy.jpg
23,2,41,1,1,3,1,1,874.6,unfammale19.jpg
23,2,42,2,1,4,1,1,2430.97,capture012 copy.jpg
23,2,43,2,1,2,2,0,2627.27,capture011 copy.jpg
23,2,44,1,1,4,1,1,815.49,unfammale25.jpg
23,2,45,2,1,2,2,0,1012.03,capture016 copy.jpg
23,2,46,1,1,3,1,1,808.37,unfammale23.jpg
23,2,47,1,2,3,2,1,1132.77,unfamfemale01.jpg
23,2,48,1,1,4,1,1,889.14,capture010 copy.jpg
24,2,1,2,1,4,1,1,1072.9,unfammale14.jpg
24,2,2,1,1,2,1,1,986.87,unfammale35.jpg
24,2,3,1,2,2,2,1,688.97,unfamfemale39.jpg
24,2,4,1,1,4,1,1,1338.89,unfammale12.jpg
24,2,5,1,2,1,2,1,636.82,unfamfemale15.jpg
24,2,6,1,1,2,1,1,994.95,capture011 copy.jpg
24,2,7,2,2,2,2,1,748.88,unfamfemale10.jpg
24,2,8,2,1,3,1,1,846.75,unfammale08.jpg
24,2,9,2,2,3,2,1,608.62,unfamfemale04.jpg
24,2,10,2,2,4,2,1,714.54,unfamfemale01.jpg
24,2,11,1,1,4,1,1,844.48,capture020 copy.jpg
24,2,12,2,2,2,2,1,550.39,capture021 copy.jpg
24,2,13,2,1,3,1,1,800.3,unfammale21.jpg
24,2,14,2,1,3,1,1,978.01,unfammale25.jpg
24,2,15,1,2,1,2,1,652.18,capture017 copy.jpg
24,2,16,1,1,1,1,1,566.01,capture012 copy.jpg
24,2,17,2,2,3,2,1,831.93,unfamfemale21.jpg
24,2,18,2,2,1,2,1,641.83,unfamfemale17.jpg
24,2,19,1,1,2,1,1,603.75,unfammale33.jpg
24,2,20,1,2,3,2,1,605.73,unfamfemale05.jpg
24,2,21,1,1,3,1,1,671.58,capture013 copy.jpg
24,2,22,2,1,1,1,1,673.46,unfammale19.jpg
24,2,23,1,2,4,2,1,539.46,unfamfemale20.jpg
24,2,24,1,1,4,1,1,1125.29,unfammale28.jpg
24,2,25,2,2,4,2,1,671.27,capture005 copy.jpg
24,2,26,1,2,4,2,1,1297.2,unfamfemale03.jpg
24,2,27,1,1,3,1,1,771.05,capture016 copy.jpg
24,2,28,1,2,3,2,1,748.95,unfamfemale06.jpg
24,2,29,1,2,3,2,1,574.88,unfamfemale26.jpg
24,2,30,2,1,2,1,1,584.8,capture010 copy.jpg
24,2,31,2,1,1,1,1,714.45,unfammale38.jpg
24,2,32,1,2,2,2,1,596.59,capture001 copy.jpg
24,2,33,2,2,1,2,1,670.3,unfamfemale32.jpg
24,2,34,1,1,1,1,1,1464.42,unfammale09.jpg
24,2,35,2,1,4,1,1,706.32,unfammale05.jpg
24,2,36,1,1,1,1,1,592.45,capture003 copy.jpg
24,2,37,2,1,4,1,1,626.4,unfammale23.jpg
24,2,38,1,2,1,2,1,524.27,capture002 copy.jpg
24,2,39,1,2,4,2,1,1078.24,unfamfemale38.jpg
24,2,40,2,2,2,2,1,880.06,capture015 copy.jpg
24,2,41,1,1,3,1,1,617.96,unfammale16.jpg
24,2,42,2,1,2,1,1,1555.9,unfammale02.jpg
24,2,43,2,2,1,2,1,1101.88,unfamfemale37.jpg
24,2,44,2,1,2,1,1,1279.7,unfammale39.jpg
24,2,45,1,2,2,2,1,737.6,unfamfemale24.jpg
24,2,46,2,2,4,2,1,651.52,unfamfemale40.jpg
24,2,47,2,1,1,1,1,629.48,unfammale18.jpg
24,2,48,2,2,3,2,1,815.36,unfamfemale08.jpg