SID,Familiarity,RepTime,Trial,Resp,Corr,RT,ImgName
1,1,1,1,1,1,1125.46,wordin4.png
1,1,1,2,1,1,668.74,wordex2_5.png
1,1,1,3,1,1,731.88,wordex2_6.png
1,1,1,4,1,1,556.58,wordin5.png
1,1,1,5,1,1,843.82,wordex1.png
1,2,1,6,2,1,556.66,nonwex2_5.png
1,2,1,7,2,1,620.53,nonwin12.png
1,2,1,8,2,1,460.53,nonwex6.png
1,2,1,9,2,1,524.5,nonwin5.png
1,2,1,10,2,1,452.49,nonwin10.png
1,1,1,11,1,1,684.48,wordex2_9.png
1,1,1,12,2,1,755.61,wordex9.png
1,1,1,13,1,1,603.6,wordex2.png
1,1,1,14,1,1,468.43,wordex11.png
1,1,1,15,1,1,756.4,wordin2_2.png
1,1,1,16,1,1,587.56,wordex2_11.png
1,2,1,17,2,1,668.47,nonwin2_2.png
1,2,1,18,2,1,572.39,nonwex12.png
1,2,1,19,2,1,443.53,nonwex8.png
1,1,1,20,2,1,307.51,wordin2_7.png
1,2,1,21,2,1,508.34,nonwin2_12.png
1,1,1,22,1,1,571.49,wordex2_3.png
1,2,1,23,2,1,548.32,nonwin1.png
1,1,1,24,1,1,603.43,wordex12.png
1,2,1,25,2,1,435.46,nonwex2_6.png
1,1,1,26,1,1,659.43,wordex2_4.png
1,2,1,27,2,1,556.28,nonwex5.png
1,2,1,28,2,1,387.4,nonwex2_2.png
1,2,1,29,2,1,452.24,nonwin2_1.png
1,2,1,30,2,1,676.22,nonwin4.png
1,1,1,31,1,1,772.21,wordin12.png
1,1,1,32,1,1,596.25,wordex2_12.png
1,1,1,33,2,1,612.19,wordin2_12.png
1,2,1,34,2,1,532.2,nonwex7.png
1,1,1,35,1,1,612.16,wordin2_4.png
1,2,1,36,2,1,676.15,nonwex2_1.png
1,1,1,37,1,1,532.13,wordin6.png
1,2,1,38,2,1,476.15,nonwex2_10.png
1,2,1,39,2,1,500.09,nonwin2_7.png
1,2,1,40,2,1,564.09,nonwex2_4.png
1,2,2,1,2,1,904.69,nonwin2_1.png
1,1,2,2,1,1,607.82,wordex2_6.png
1,2,2,3,2,1,520.68,nonwex8.png
1,2,2,4,2,1,352.64,nonwex2_10.png
1,1,2,5,1,1,679.77,wordin12.png
1,2,2,6,2,1,600.62,nonwex12.png
1,2,2,7,2,1,391.75,nonwin2_12.png
1,1,2,8,1,1,551.74,wordex2_11.png
1,2,2,9,2,1,319.73,nonwin2_7.png
1,1,2,10,1,1,871.72,wordex9.png
1,1,2,11,1,1,784.57,wordin2_4.png
1,1,2,12,1,1,567.67,wordex2_12.png
1,2,2,13,2,1,400.55,nonwex2_2.png
1,2,2,14,2,1,408.51,nonwin10.png
1,1,2,15,1,1,631.65,wordin2_2.png
1,2,2,16,2,1,687.63,nonwex2_4.png
1,1,2,17,1,1,639.61,wordin2_7.png
1,2,2,18,2,1,696.46,nonwin4.png
1,1,2,19,1,1,464.44,wordex2_5.png
1,1,2,20,1,1,464.54,wordex2.png
1,2,2,21,2,1,456.42,nonwex2_5.png
1,1,2,22,1,1,616.51,wordin4.png
1,1,2,23,1,1,727.53,wordex11.png
1,1,2,24,1,1,952.42,wordin6.png
1,2,2,25,2,1,503.51,nonwex7.png
1,2,2,26,2,1,770.76,nonwin2_2.png
1,2,2,27,2,1,442.74,nonwex6.png
1,2,2,28,2,1,650.73,nonwex2_1.png
1,1,2,29,1,1,562.75,wordex12.png
1,2,2,30,2,1,585.85,nonwin1.png
1,1,2,31,1,1,1201.82,wordex2_4.png
1,2,2,32,2,1,561.81,nonwex2_6.png
1,1,2,33,2,1,570.66,wordin2_12.png
1,1,2,34,1,1,546.57,wordex1.png
1,2,2,35,2,1,793.8,nonwin5.png
1,2,2,36,2,1,658.63,nonwin12.png
1,1,2,37,1,1,570.64,wordex2_3.png
1,1,2,38,1,1,586.59,wordex2_9.png
1,1,2,39,1,1,538.58,wordin5.png
1,2,2,40,2,1,626.6,nonwex5.png
1,1,3,1,1,1,915.39,wordin12.png
1,2,3,2,2,1,435.38,nonwin2_2.png
1,1,3,3,1,1,363.35,wordex2.png
1,1,3,4,1,1,387.34,wordex1.png
1,1,3,5,1,1,427.33,wordex2_9.png
1,1,3,6,1,1,475.32,wordin2_2.png
1,1,3,7,1,1,419.3,wordex2_3.png
1,1,3,8,1,1,499.31,wordin5.png
1,1,3,9,1,1,531.35,wordin6.png
1,1,3,10,1,1,546.42,wordex2_11.png
1,2,3,11,1,1,483.28,nonwin1.png
1,2,3,12,2,1,651.19,nonwex12.png
1,1,3,13,1,1,538.38,wordin2_7.png
1,2,3,14,2,1,563.22,nonwex7.png
1,2,3,15,2,1,587.22,nonwin10.png
1,2,3,16,2,1,555.18,nonwin4.png
1,2,3,17,2,1,643.17,nonwex2_4.png
1,1,3,18,1,1,523.16,wordex2_5.png
1,2,3,19,2,1,675.16,nonwin5.png
1,2,3,20,2,1,667.16,nonwex8.png
1,2,3,21,2,1,523.15,nonwex5.png
1,1,3,22,2,1,491.1,wordin2_12.png
1,1,3,23,1,1,594.22,wordin4.png
1,2,3,24,2,1,563.08,nonwex6.png
1,1,3,25,1,1,563.07,wordex12.png
1,2,3,26,2,1,483.06,nonwex2_1.png
1,2,3,27,2,1,403.03,nonwin2_1.png
1,2,3,28,2,1,491.02,nonwex2_5.png
1,2,3,29,2,1,411.17,nonwex2_6.png
1,1,3,30,2,1,306.98,wordex2_12.png
1,2,3,31,2,1,506.99,nonwin2_7.png
1,2,3,32,2,1,698.97,nonwin12.png
1,1,3,33,2,1,442.95,wordex9.png
1,2,3,34,2,1,506.1,nonwex2_2.png
1,2,3,35,2,1,386.93,nonwex2_10.png
1,2,3,36,2,1,466.92,nonwin2_12.png
1,1,3,37,1,1,602.93,wordex2_4.png
1,1,3,38,1,1,538.89,wordex11.png
1,1,3,39,1,1,498.89,wordin2_4.png
1,1,3,40,1,1,570.9,wordex2_6.png
1,2,4,1,2,1,774.25,nonwex2_10.png
1,1,4,2,1,1,470.24,wordin4.png
1,2,4,3,2,1,558.26,nonwin2_12.png
1,2,4,4,2,1,518.24,nonwex2_1.png
1,1,4,5,1,1,653.36,wordin12.png
1,2,4,6,2,1,678.2,nonwin10.png
1,2,4,7,2,1,614.17,nonwex7.png
1,2,4,8,2,1,598.16,nonwin1.png
1,1,4,9,2,1,854.15,wordex2_5.png
1,2,4,10,2,1,470.13,nonwex2_6.png
1,1,4,11,1,1,485.31,wordex11.png
1,1,4,12,1,1,533.27,wordin2_7.png
1,1,4,13,1,1,430.08,wordex2.png
1,1,4,14,1,1,622.07,wordin2_2.png
1,1,4,15,1,1,549.23,wordex2_9.png
1,1,4,16,2,1,622.05,wordex2_11.png
1,1,4,17,1,1,709.27,wordin2_4.png
1,2,4,18,1,1,670.02,nonwex2_2.png
1,2,4,19,2,1,446.04,nonwin2_2.png
1,2,4,20,2,1,526.01,nonwin2_7.png
1,1,4,21,2,1,822.08,wordex2_12.png
1,2,4,22,2,1,453.2,nonwex2_4.png
1,2,4,23,2,1,365.95,nonwin4.png
1,1,4,24,1,1,606.06,wordin5.png
1,1,4,25,1,1,525.93,wordin2_12.png
1,2,4,26,2,1,389.91,nonwex12.png
1,2,4,27,2,1,446.04,nonwin12.png
1,1,4,28,1,1,813.51,wordex12.png
1,2,4,29,2,1,557.87,nonwin2_1.png
1,2,4,30,2,1,685.86,nonwex2_5.png
1,1,4,31,1,1,501.95,wordex2_3.png
1,1,4,32,1,1,501.83,wordin6.png
1,1,4,33,1,1,597.83,wordex2_6.png
1,2,4,34,1,1,605.81,nonwin5.png
1,1,4,35,1,1,957.79,wordex1.png
1,2,4,36,2,1,628.86,nonwex5.png
1,2,4,37,2,1,549.84,nonwex8.png
1,1,4,38,2,1,565.77,wordex9.png
1,2,4,39,2,1,469.74,nonwex6.png
1,1,4,40,1,1,597.75,wordex2_4.png
1,2,5,1,1,1,907.85,nonwin2_7.png
1,1,5,2,1,1,514.94,wordin5.png
1,2,5,3,2,1,811.81,nonwex2_4.png
1,1,5,4,1,1,723.83,wordex9.png
1,2,5,5,2,1,467.77,nonwex2_10.png
1,2,5,6,2,1,571.77,nonwex5.png
1,1,5,7,2,1,627.79,wordin2_12.png
1,1,5,8,1,1,579.73,wordin4.png
1,2,5,9,2,1,587.72,nonwin5.png
1,2,5,10,2,1,659.71,nonwex8.png
1,2,5,11,2,1,715.7,nonwex6.png
1,2,5,12,2,1,259.69,nonwin4.png
1,1,5,13,2,1,219.7,wordin12.png
1,2,5,14,2,1,443.66,nonwex2_1.png
1,1,5,15,2,1,267.63,wordin6.png
1,2,5,16,2,1,643.66,nonwin2_1.png
1,2,5,17,2,1,667.64,nonwin2_2.png
1,2,5,18,2,1,363.6,nonwin2_12.png
1,2,5,19,2,1,243.48,nonwin12.png
1,2,5,20,2,1,1266.83,nonwin10.png
1,1,5,21,2,1,291.58,wordex2_11.png
1,2,5,22,1,1,363.54,nonwex2_2.png
1,1,5,23,1,1,491.54,wordin2_2.png
1,1,5,24,1,1,538.63,wordin2_4.png
1,2,5,25,2,1,595.5,nonwin1.png
1,1,5,26,1,1,547.5,wordex2_12.png
1,2,5,27,1,1,459.48,nonwex2_5.png
1,2,5,28,2,1,627.51,nonwex12.png
1,1,5,29,1,1,531.46,wordex2_3.png
1,2,5,30,2,1,515.45,nonwex2_6.png
1,1,5,31,1,1,531.42,wordex2.png
1,1,5,32,2,1,627.43,wordex2_6.png
1,1,5,33,1,1,499.4,wordex1.png
1,1,5,34,1,1,691.4,wordex2_4.png
1,1,5,35,1,1,659.41,wordex2_9.png
1,1,5,36,1,1,563.39,wordex12.png
1,2,5,37,2,1,627.35,nonwex7.png
1,1,5,38,1,1,587.34,wordex11.png
1,1,5,39,1,1,650.46,wordex2_5.png
1,1,5,40,1,1,515.3,wordin2_7.png
1,2,6,1,2,1,709.31,nonwin2_7.png
1,1,6,2,2,1,541.28,wordin2_12.png
1,1,6,3,1,1,829.27,wordex9.png
1,1,6,4,1,1,669.26,wordex12.png
1,2,6,5,2,1,533.23,nonwex2_1.png
1,2,6,6,2,1,524.41,nonwin2_2.png
1,2,6,7,2,1,565.22,nonwin4.png
1,2,6,8,2,1,557.24,nonwin1.png
1,1,6,9,1,1,773.22,wordex2_5.png
1,1,6,10,1,1,653.26,wordex2.png
1,1,6,11,1,1,509.16,wordin4.png
1,2,6,12,2,1,637.15,nonwin10.png
1,2,6,13,2,1,461.13,nonwex5.png
1,2,6,14,2,1,381.15,nonwex2_10.png
1,1,6,15,1,1,653.02,wordex11.png
1,1,6,16,1,1,893.09,wordex2_9.png
1,2,6,17,2,1,493.08,nonwex2_4.png
1,1,6,18,1,1,453.08,wordex1.png
1,2,6,19,2,1,573.18,nonwex2_6.png
1,2,6,20,2,1,413.04,nonwex2_5.png
1,2,6,21,2,1,517.03,nonwex12.png
1,1,6,22,2,1,477.01,wordin12.png
1,2,6,23,2,1,541.03,nonwin2_1.png
1,1,6,24,1,1,580.97,wordex2_3.png
1,2,6,25,2,1,724.97,nonwex8.png
1,1,6,26,2,1,804.96,wordin5.png
1,1,6,27,1,1,532.94,wordex2_11.png
1,2,6,28,2,1,564.98,nonwin12.png
1,2,6,29,2,1,612.93,nonwin2_12.png
1,1,6,30,1,1,524.93,wordex2_4.png
1,1,6,31,1,1,540.92,wordin2_4.png
1,2,6,32,2,1,628.89,nonwex2_2.png
1,2,6,33,2,1,508.81,nonwex7.png
1,1,6,34,1,1,500.83,wordin6.png
1,2,6,35,2,1,548.88,nonwin5.png
1,2,6,36,2,1,572.86,nonwex6.png
1,1,6,37,1,1,508.81,wordex2_6.png
1,1,6,38,1,1,508.8,wordin2_2.png
1,1,6,39,1,1,508.78,wordin2_7.png
1,1,6,40,1,1,468.77,wordex2_12.png
1,1,7,1,1,1,519.08,wordex2_4.png
1,2,7,2,2,1,422.78,nonwin4.png
1,1,7,3,1,1,455.09,wordin4.png
1,1,7,4,1,1,479.07,wordex11.png
1,1,7,5,1,1,383.02,wordin2_4.png
1,2,7,6,2,1,511.03,nonwin2_1.png
1,1,7,7,1,1,615,wordex1.png
1,1,7,8,1,1,543,wordex12.png
1,2,7,9,2,1,470.97,nonwin2_7.png
1,1,7,10,1,1,494.22,wordex2_6.png
1,2,7,11,2,1,479.07,nonwex7.png
1,1,7,12,1,1,622.92,wordex2_5.png
1,1,7,13,1,1,558.9,wordex2_3.png
1,2,7,14,2,1,590.9,nonwex2_2.png
1,2,7,15,2,1,446.93,nonwin1.png
1,2,7,16,2,1,526.92,nonwin10.png
1,2,7,17,2,1,494.89,nonwex2_5.png
1,2,7,18,2,1,550.87,nonwex6.png
1,1,7,19,1,1,774.82,wordex9.png
1,2,7,20,2,1,710.53,nonwex2_6.png
1,1,7,21,1,1,542.79,wordin5.png
1,2,7,22,2,1,446.8,nonwex12.png
1,1,7,23,1,1,558.77,wordin2_7.png
1,1,7,24,1,1,606.8,wordex2_9.png
1,2,7,25,2,1,422.78,nonwin2_2.png
1,2,7,26,2,1,446.74,nonwex2_1.png
1,2,7,27,2,1,502.72,nonwin5.png
1,1,7,28,1,1,566.74,wordin2_2.png
1,2,7,29,2,1,478.7,nonwin12.png
1,1,7,30,1,1,502.68,wordex2.png
1,2,7,31,2,1,438.66,nonwex8.png
1,2,7,32,2,1,694.7,nonwex2_10.png
1,1,7,33,1,1,550.65,wordin6.png
1,2,7,34,2,1,494.63,nonwex2_4.png
1,1,7,35,1,1,654.65,wordin12.png
1,2,7,36,2,1,462.6,nonwin2_12.png
1,1,7,37,1,1,654.62,wordex2_11.png
1,1,7,38,2,1,486.6,wordin2_12.png
1,2,7,39,2,1,518.59,nonwex5.png
1,1,7,40,2,1,461.68,wordex2_12.png
1,2,8,1,2,1,482.97,nonwex2_5.png
1,1,8,2,2,1,378.97,wordex2.png
1,1,8,3,1,1,466.95,wordin5.png
1,2,8,4,1,1,426.91,nonwex8.png
1,1,8,5,1,1,530.95,wordin2_7.png
1,2,8,6,2,1,410.92,nonwex2_2.png
1,1,8,7,1,1,706.88,wordex2_11.png
1,1,8,8,1,1,642.85,wordex12.png
1,1,8,9,1,1,418.84,wordin4.png
1,2,8,10,2,1,610.91,nonwex2_1.png
1,1,8,11,1,1,682.81,wordex9.png
1,1,8,12,2,1,642.78,wordin2_12.png
1,1,8,13,1,1,474.79,wordex11.png
1,2,8,14,2,1,1026.78,nonwin4.png
1,1,8,15,1,1,602.85,wordex2_4.png
1,1,8,16,1,1,490.74,wordex2_12.png
1,1,8,17,1,1,426.73,wordin12.png
1,2,8,18,2,1,666.75,nonwex5.png
1,2,8,19,2,1,522.72,nonwin5.png
1,1,8,20,1,1,562.74,wordex2_9.png
1,1,8,21,1,1,498.67,wordex2_6.png
1,2,8,22,2,1,498.7,nonwin2_12.png
1,2,8,23,2,1,650.03,nonwex2_10.png
1,2,8,24,2,1,386.67,nonwin2_1.png
1,2,8,25,2,1,394.63,nonwex7.png
1,1,8,26,1,1,650.62,wordin2_2.png
1,2,8,27,2,1,370.59,nonwin10.png
1,2,8,28,2,1,418.62,nonwex2_4.png
1,1,8,29,1,1,610.57,wordex1.png
1,1,8,30,1,1,538.58,wordin6.png
1,1,8,31,1,1,562.54,wordex2_3.png
1,1,8,32,1,1,514.61,wordex2_5.png
1,2,8,33,2,1,498.52,nonwin2_2.png
1,2,8,34,2,1,682.5,nonwin1.png
1,1,8,35,1,1,618.47,wordin2_4.png
1,2,8,36,2,1,482.5,nonwin2_7.png
1,2,8,37,2,1,666.46,nonwex2_6.png
1,2,8,38,2,1,642.45,nonwex6.png
1,2,8,39,2,1,418.42,nonwex12.png
1,2,8,40,2,1,314.42,nonwin12.png
2,2,1,1,1,1,418.64,nonwex3.png
2,1,1,2,1,1,521.68,wordex2_8.png
2,2,1,3,2,1,665.66,nonwin9.png
2,2,1,4,2,1,674.63,nonwin2_8.png
2,1,1,5,1,1,458.62,wordex9.png
2,1,1,6,1,1,810.59,wordin5.png
2,1,1,7,1,1,506.61,wordex1.png
2,1,1,8,1,1,394.58,wordin8.png
2,1,1,9,1,1,402.56,wordin2_7.png
2,1,1,10,1,1,370.56,wordin2_11.png
2,1,1,11,1,1,322.63,wordex3.png
2,1,1,12,1,1,482.55,wordex6.png
2,1,1,13,1,1,297.27,wordex2_10.png
2,2,1,14,1,1,282.53,nonwin2.png
2,2,1,15,2,1,697.26,nonwin6.png
2,2,1,16,2,1,578.49,nonwex1.png
2,1,1,17,1,1,402.45,wordex4.png
2,1,1,18,1,1,410.47,wordex5.png
2,2,1,19,1,1,538.44,nonwex2_9.png
2,2,1,20,1,1,602.35,nonwin2_5.png
2,2,1,21,2,1,426.43,nonwin1.png
2,1,1,22,1,1,634.41,wordin2_9.png
2,2,1,23,2,1,633.19,nonwin8.png
2,1,1,24,2,1,521.12,wordin2_12.png
2,1,1,25,1,1,722.36,wordin2_10.png
2,1,1,26,1,1,490.28,wordex2_5.png
2,1,1,27,1,1,642.33,wordin11.png
2,2,1,28,2,1,458.33,nonwex2_10.png
2,2,1,29,2,1,466.33,nonwex2_12.png
2,1,1,30,1,1,490.17,wordex12.png
2,2,1,31,2,1,562.29,nonwex2_3.png
2,2,1,32,2,1,681.05,nonwex6.png
2,2,1,33,2,1,538.26,nonwex2_7.png
2,2,1,34,2,1,618.24,nonwin2_1.png
2,2,1,35,1,1,489.42,nonwin5.png
2,1,1,36,1,1,785.03,wordin6.png
2,2,1,37,2,1,554.21,nonwex2_11.png
2,1,1,38,1,1,488.87,wordex2_3.png
2,2,1,39,2,1,602.17,nonwex12.png
2,2,1,40,1,1,601.34,nonwex2_1.png
2,2,2,1,0,0,0,nonwin5.png
2,1,2,2,1,1,947.45,wordin5.png
2,1,2,3,1,1,523.42,wordex12.png
2,2,2,4,2,1,659.4,nonwin2.png
2,1,2,5,1,1,650.54,wordex2_10.png
2,2,2,6,2,1,595.37,nonwin8.png
2,1,2,7,1,1,579.39,wordin2_7.png
2,2,2,8,2,1,602.99,nonwin1.png
2,2,2,9,2,1,539.32,nonwin9.png
2,1,2,10,1,1,530.1,wordin8.png
2,1,2,11,1,1,715.3,wordex2_8.png
2,1,2,12,1,1,379.29,wordin6.png
2,2,2,13,2,1,522.92,nonwex2_7.png
2,1,2,14,1,1,403.33,wordex6.png
2,2,2,15,2,1,579.22,nonwex2_3.png
2,2,2,16,2,1,579.25,nonwex12.png
2,1,2,17,1,1,491.1,wordex2_5.png
2,2,2,18,1,1,626.84,nonwin2_8.png
2,2,2,19,2,1,747.22,nonwin6.png
2,1,2,20,1,1,811.16,wordin2_11.png
2,1,2,21,1,1,523.16,wordex5.png
2,1,2,22,1,1,515.16,wordin11.png
2,1,2,23,1,1,481.88,wordin2_9.png
2,2,2,24,2,1,395.14,nonwex2_12.png
2,1,2,25,1,1,699.12,wordex2_3.png
2,1,2,26,1,1,571.12,wordin2_10.png
2,2,2,27,2,1,667.09,nonwex1.png
2,2,2,28,2,1,1178.7,nonwex3.png
2,2,2,29,1,1,347.07,nonwin2_1.png
2,2,2,30,2,1,483.06,nonwex2_1.png
2,1,2,31,2,1,729.82,wordin2_12.png
2,2,2,32,2,1,483.02,nonwex6.png
2,1,2,33,1,1,579.02,wordex4.png
2,1,2,34,1,1,603.01,wordex1.png
2,2,2,35,2,1,675.01,nonwex2_10.png
2,1,2,36,1,1,675.05,wordex9.png
2,2,2,37,2,1,657.7,nonwex2_11.png
2,2,2,38,2,1,913.76,nonwex2_9.png
2,2,2,39,2,1,594.87,nonwin2_5.png
2,1,2,40,1,1,514.91,wordex3.png
2,2,3,1,2,1,630.58,nonwin5.png
2,1,3,2,1,1,509.74,wordin2_10.png
2,2,3,3,2,1,621.34,nonwex2_10.png
2,1,3,4,1,1,542.54,wordin5.png
2,1,3,5,1,1,910.53,wordex9.png
2,2,3,6,2,1,574.48,nonwin2_5.png
2,2,3,7,2,1,725.28,nonwin2_1.png
2,2,3,8,1,1,678.49,nonwex2_9.png
2,2,3,9,2,1,526.47,nonwex2_12.png
2,1,3,10,1,1,774.47,wordex12.png
2,2,3,11,2,1,694.46,nonwex12.png
2,2,3,12,2,1,638.44,nonwex2_3.png
2,1,3,13,1,1,494.42,wordex3.png
2,1,3,14,1,1,470.51,wordin2_11.png
2,2,3,15,2,1,662.4,nonwin6.png
2,1,3,16,1,1,526.38,wordex2_10.png
2,2,3,17,2,1,974.37,nonwex1.png
2,2,3,18,2,1,710.36,nonwex3.png
2,1,3,19,1,1,541.16,wordex6.png
2,1,3,20,1,1,726.32,wordin11.png
2,1,3,21,1,1,470.31,wordex2_5.png
2,2,3,22,2,1,622.31,nonwex6.png
2,1,3,23,1,1,517.05,wordex4.png
2,2,3,24,2,1,670.27,nonwex2_1.png
2,1,3,25,1,1,500.98,wordin2_9.png
2,2,3,26,2,1,630.24,nonwin2.png
2,2,3,27,2,1,558.24,nonwex2_11.png
2,1,3,28,1,1,494.22,wordin2_7.png
2,1,3,29,1,1,741,wordex2_3.png
2,1,3,30,1,1,526.2,wordin8.png
2,1,3,31,1,1,430.18,wordex2_8.png
2,1,3,32,1,1,494.18,wordex1.png
2,1,3,33,2,1,572.9,wordin2_12.png
2,2,3,34,2,1,622.15,nonwin2_8.png
2,2,3,35,2,1,564.91,nonwin8.png
2,1,3,36,2,1,884.9,wordex5.png
2,2,3,37,2,1,662.1,nonwin9.png
2,1,3,38,1,1,580.88,wordin6.png
2,2,3,39,2,1,654.08,nonwin1.png
2,2,3,40,2,1,476.87,nonwex2_7.png
2,1,4,1,1,1,413.42,wordex2_5.png
2,2,4,2,1,1,445.38,nonwex3.png
2,1,4,3,1,1,437.4,wordex2_10.png
2,2,4,4,2,1,517.35,nonwex1.png
2,2,4,5,2,1,740.08,nonwin9.png
2,2,4,6,2,1,453.32,nonwex2_12.png
2,2,4,7,2,1,436.03,nonwin2_5.png
2,2,4,8,2,1,637.3,nonwin2_1.png
2,1,4,9,1,1,597.29,wordin2_10.png
2,1,4,10,1,1,437.41,wordex12.png
2,2,4,11,2,1,739.99,nonwex2_3.png
2,2,4,12,2,1,1003.98,nonwex6.png
2,1,4,13,1,1,668.03,wordex2_3.png
2,2,4,14,2,1,581.2,nonwin1.png
2,2,4,15,2,1,549.2,nonwex2_7.png
2,2,4,16,1,1,563.97,nonwex2_9.png
2,1,4,17,1,1,469.18,wordex6.png
2,1,4,18,1,1,461.13,wordex1.png
2,2,4,19,2,1,661.14,nonwin6.png
2,1,4,20,1,1,653.14,wordex4.png
2,2,4,21,2,1,573.13,nonwex2_11.png
2,1,4,22,1,1,555.86,wordin11.png
2,1,4,23,1,1,581.1,wordex9.png
2,2,4,24,2,1,635.87,nonwin2_8.png
2,1,4,25,1,1,539.77,wordex3.png
2,1,4,26,1,1,499.79,wordin2_7.png
2,1,4,27,1,1,387.8,wordin5.png
2,1,4,28,1,1,541.03,wordex2_8.png
2,1,4,29,1,1,571.77,wordex5.png
2,2,4,30,2,1,620.98,nonwex2_1.png
2,1,4,31,1,1,956.98,wordin8.png
2,1,4,32,1,1,525.1,wordin2_9.png
2,1,4,33,2,1,524.95,wordin2_12.png
2,2,4,34,1,1,652.94,nonwin5.png
2,2,4,35,2,1,828.93,nonwin2.png
2,2,4,36,2,1,668.92,nonwin8.png
2,1,4,37,1,1,548.91,wordin2_11.png
2,1,4,38,1,1,755.71,wordin6.png
2,2,4,39,1,1,812.88,nonwex12.png
2,2,4,40,2,1,732.87,nonwex2_10.png
2,2,5,1,2,1,484.64,nonwex2_7.png
2,2,5,2,2,1,596.53,nonwex6.png
2,1,5,3,1,1,540.56,wordin2_10.png
2,1,5,4,1,1,604.51,wordex3.png
2,2,5,5,2,1,540.59,nonwex2_10.png
2,1,5,6,1,1,404.56,wordin2_7.png
2,2,5,7,2,1,708.53,nonwex2_12.png
2,2,5,8,2,1,555.32,nonwex1.png
2,2,5,9,2,1,571.28,nonwex2_9.png
2,1,5,10,1,1,587.31,wordin2_11.png
2,2,5,11,2,1,756.48,nonwex2_3.png
2,2,5,12,2,1,620.48,nonwin9.png
2,1,5,13,1,1,732.45,wordex6.png
2,2,5,14,2,1,548.44,nonwin5.png
2,2,5,15,2,1,580.43,nonwex3.png
2,2,5,16,2,1,820.42,nonwin8.png
2,1,5,17,1,1,524.41,wordex2_3.png
2,1,5,18,1,1,564.38,wordin2_9.png
2,2,5,19,2,1,828.46,nonwin2_1.png
2,2,5,20,2,1,611.15,nonwex12.png
2,2,5,21,2,1,475.13,nonwex2_1.png
2,1,5,22,1,1,532.34,wordex12.png
2,1,5,23,1,1,499.13,wordex4.png
2,1,5,24,1,1,644.31,wordin6.png
2,1,5,25,1,1,667.08,wordin5.png
2,2,5,26,2,1,684.29,nonwin6.png
2,1,5,27,1,1,580.27,wordex2_10.png
2,2,5,28,2,1,444.28,nonwin1.png
2,1,5,29,1,1,482.98,wordex2_5.png
2,1,5,30,1,1,596.24,wordex1.png
2,2,5,31,2,1,644.19,nonwex2_11.png
2,1,5,32,1,1,620.21,wordin11.png
2,1,5,33,2,1,626.93,wordin2_12.png
2,2,5,34,1,1,338.9,nonwin2.png
2,1,5,35,1,1,492.04,wordex9.png
2,2,5,36,2,1,626.88,nonwin2_5.png
2,1,5,37,1,1,636.14,wordin8.png
2,1,5,38,1,1,772.13,wordex5.png
2,1,5,39,1,1,540.11,wordex2_8.png
2,2,5,40,2,1,588.11,nonwin2_8.png
2,1,6,1,1,1,448.55,wordex5.png
2,1,6,2,1,1,416.5,wordex12.png
2,2,6,3,1,1,447.32,nonwex3.png
2,2,6,4,2,1,512.51,nonwex2_12.png
2,2,6,5,2,1,568.5,nonwin9.png
2,2,6,6,1,1,575.3,nonwin2_5.png
2,1,6,7,1,1,592.46,wordex6.png
2,2,6,8,2,1,543.23,nonwin5.png
2,2,6,9,2,1,472.51,nonwex2_9.png
2,2,6,10,2,1,471.22,nonwex1.png
2,1,6,11,1,1,543.17,wordex9.png
2,1,6,12,1,1,615.14,wordex2_3.png
2,1,6,13,1,1,400.39,wordin2_10.png
2,1,6,14,1,1,375.07,wordin2_9.png
2,2,6,15,1,1,839.14,nonwex12.png
2,1,6,16,1,1,407.17,wordex2_5.png
2,2,6,17,2,1,616.24,nonwin6.png
2,2,6,18,2,1,487.12,nonwin2.png
2,2,6,19,1,1,439.09,nonwex2_7.png
2,2,6,20,2,1,695.07,nonwex6.png
2,1,6,21,1,1,472.28,wordex2_10.png
2,2,6,22,2,1,664.27,nonwex2_3.png
2,1,6,23,1,1,623.06,wordin2_11.png
2,2,6,24,2,1,727.01,nonwex2_11.png
2,2,6,25,2,1,742.96,nonwin8.png
2,1,6,26,1,1,567,wordin2_7.png
2,1,6,27,2,1,606.98,wordin2_12.png
2,1,6,28,1,1,720.12,wordin5.png
2,2,6,29,2,1,648.18,nonwin2_1.png
2,1,6,30,1,1,542.94,wordin8.png
2,2,6,31,2,1,696.13,nonwin1.png
2,1,6,32,1,1,504.06,wordex2_8.png
2,2,6,33,2,1,544.09,nonwex2_1.png
2,1,6,34,1,1,560.1,wordin11.png
2,2,6,35,2,1,568.09,nonwin2_8.png
2,2,6,36,2,1,712.06,nonwex2_10.png
2,1,6,37,1,1,478.85,wordex1.png
2,1,6,38,1,1,400.06,wordex4.png
2,1,6,39,1,1,600.05,wordin6.png
2,1,6,40,1,1,592.01,wordex3.png
2,2,7,1,2,1,593.09,nonwin9.png
2,1,7,2,2,1,537.06,wordin2_12.png
2,2,7,3,2,1,495.83,nonwex2_3.png
2,2,7,4,2,1,463.78,nonwex2_1.png
2,2,7,5,2,1,415.8,nonwin2.png
2,1,7,6,1,1,439.78,wordex2_10.png
2,2,7,7,2,1,495.78,nonwex2_9.png
2,1,7,8,1,1,399.73,wordin5.png
2,1,7,9,1,1,536.97,wordex2_5.png
2,2,7,10,2,1,576.93,nonwex2_10.png
2,1,7,11,1,1,464.95,wordex4.png
2,1,7,12,1,1,696.93,wordex5.png
2,2,7,13,2,1,552.89,nonwex2_11.png
2,2,7,14,2,1,559.68,nonwin2_8.png
2,1,7,15,1,1,447.68,wordin2_7.png
2,1,7,16,1,1,559.64,wordin6.png
2,1,7,17,1,1,543.65,wordex2_3.png
2,2,7,18,1,1,615.64,nonwin2_5.png
2,1,7,19,2,1,519.62,wordex12.png
2,2,7,20,2,1,528.21,nonwex6.png
2,2,7,21,1,1,567.53,nonwin6.png
2,2,7,22,1,1,991.47,nonwex12.png
2,1,7,23,1,1,647.56,wordin8.png
2,2,7,24,2,1,568.76,nonwex3.png
2,2,7,25,2,1,567.52,nonwin8.png
2,2,7,26,2,1,640.72,nonwin2_1.png
2,1,7,27,1,1,535.5,wordex1.png
2,1,7,28,1,1,471.39,wordex3.png
2,2,7,29,2,1,575.48,nonwex2_12.png
2,1,7,30,1,1,536.69,wordex6.png
2,2,7,31,2,1,544.68,nonwin1.png
2,1,7,32,1,1,744.65,wordex9.png
2,1,7,33,1,1,840.64,wordin2_11.png
2,1,7,34,1,1,384.64,wordin2_10.png
2,2,7,35,2,1,599.38,nonwin5.png
2,1,7,36,1,1,479.38,wordex2_8.png
2,1,7,37,1,1,543.37,wordin2_9.png
2,1,7,38,1,1,336.58,wordin11.png
2,2,7,39,2,1,647.35,nonwex2_7.png
2,2,7,40,2,1,999.32,nonwex1.png
2,1,8,1,1,1,484.45,wordex2_8.png
2,1,8,2,1,1,492.42,wordex6.png
2,1,8,3,1,1,523.15,wordex3.png
2,1,8,4,1,1,363.17,wordin8.png
2,1,8,5,1,1,475.16,wordin2_10.png
2,1,8,6,1,1,444.33,wordex5.png
2,2,8,7,2,1,627.1,nonwin2_8.png
2,2,8,8,2,1,508.3,nonwex1.png
2,1,8,9,2,1,628.32,wordin2_12.png
2,2,8,10,2,1,491.02,nonwex2_3.png
2,2,8,11,2,1,466.99,nonwex2_9.png
2,2,8,12,2,1,452.28,nonwin9.png
2,2,8,13,2,1,500.28,nonwin5.png
2,1,8,14,1,1,524.26,wordin5.png
2,1,8,15,1,1,386.98,wordin6.png
2,2,8,16,2,1,627.01,nonwex2_7.png
2,1,8,17,1,1,412.22,wordex12.png
2,2,8,18,2,1,476.21,nonwex2_11.png
2,2,8,19,2,1,428.2,nonwex2_10.png
2,1,8,20,1,1,434.95,wordex4.png
2,1,8,21,1,1,538.89,wordex2_3.png
2,2,8,22,2,1,596.15,nonwin8.png
2,2,8,23,2,1,764.13,nonwin1.png
2,2,8,24,2,1,748.13,nonwex3.png
2,1,8,25,2,1,626.86,wordex2_5.png
2,1,8,26,1,1,410.89,wordex2_10.png
2,2,8,27,2,1,540.09,nonwex2_1.png
2,1,8,28,1,1,682.84,wordin2_7.png
2,2,8,29,2,1,530.83,nonwex2_12.png
2,2,8,30,2,1,682.81,nonwin2.png
2,2,8,31,2,1,692.01,nonwin6.png
2,1,8,32,1,1,602.79,wordin2_9.png
2,2,8,33,2,1,667.9,nonwin2_5.png
2,1,8,34,1,1,403.64,wordin2_11.png
2,2,8,35,2,1,562.76,nonwin2_1.png
2,1,8,36,1,1,506.75,wordex1.png
2,1,8,37,1,1,739.95,wordex9.png
2,2,8,38,2,1,859.94,nonwex6.png
2,2,8,39,1,1,483.92,nonwex12.png
2,1,8,40,1,1,498.7,wordin11.png
3,2,1,1,2,1,1254.44,nonwin8.png
3,1,1,2,1,1,662.37,wordin12.png
3,2,1,3,1,1,710.33,nonwin2_9.png
3,1,1,4,1,1,534.3,wordin11.png
3,2,1,5,2,1,670.33,nonwex2_2.png
3,1,1,6,1,1,566.3,wordex9.png
3,2,1,7,1,1,694.29,nonwin6.png
3,2,1,8,1,1,670.3,nonwex3.png
3,1,1,9,1,1,830.31,wordex2_3.png
3,1,1,10,1,1,742.32,wordin2_7.png
3,2,1,11,2,1,654.26,nonwin2_10.png
3,2,1,12,1,1,742.23,nonwex5.png
3,2,1,13,2,1,790.28,nonwin2_1.png
3,2,1,14,2,1,870.21,nonwex2_7.png
3,1,1,15,1,1,622.21,wordex2_8.png
3,1,1,16,1,1,598.15,wordex8.png
3,1,1,17,1,1,702.18,wordin3.png
3,1,1,18,1,1,750.14,wordex5.png
3,1,1,19,1,1,742.15,wordin2_11.png
3,1,1,20,1,1,782.13,wordin2_12.png
3,1,1,21,1,1,846.1,wordin2_6.png
3,2,1,22,2,1,678.09,nonwex1.png
3,1,1,23,1,1,614.09,wordex2_6.png
3,2,1,24,1,1,717.98,nonwin2_3.png
3,2,1,25,1,1,966.07,nonwex2_9.png
3,1,1,26,1,1,717.17,wordin5.png
3,1,1,27,1,1,781.22,wordin2_10.png
3,1,1,28,1,1,845.26,wordin2_2.png
3,1,1,29,1,1,789.99,wordin4.png
3,2,1,30,2,1,557.11,nonwex6.png
3,2,1,31,1,1,662.01,nonwin2_11.png
3,2,1,32,2,1,725.96,nonwex10.png
3,1,1,33,1,1,613.29,wordex1.png
3,2,1,34,1,1,773.28,nonwex2_1.png
3,1,1,35,1,1,805.63,wordex2_5.png
3,2,1,36,2,1,653.68,nonwex8.png
3,2,1,37,1,1,661.59,nonwex2_8.png
3,2,1,38,2,1,805.23,nonwex2.png
3,2,1,39,2,1,917.21,nonwin2_8.png
3,1,1,40,1,1,797.2,wordex2_2.png
3,2,2,1,0,0,0,nonwex2_1.png
3,1,2,2,0,0,0,wordin4.png
3,1,2,3,0,0,0,wordex2_8.png
3,1,2,4,2,1,1075.5,wordin2_11.png
3,2,2,5,1,1,668.11,nonwex10.png
3,2,2,6,1,1,531.48,nonwin6.png
3,1,2,7,2,1,531.2,wordin2_6.png
3,1,2,8,1,1,516.09,wordin3.png
3,2,2,9,2,1,380.08,nonwin2_11.png
3,1,2,10,1,1,403.42,wordex9.png
3,2,2,11,2,1,412.14,nonwex2.png
3,2,2,12,1,1,291.39,nonwex2_9.png
3,1,2,13,1,1,699.38,wordex1.png
3,1,2,14,1,1,644.02,wordex2_6.png
3,1,2,15,1,1,612.01,wordin2_2.png
3,1,2,16,2,1,683.34,wordin2_12.png
3,2,2,17,1,1,579.87,nonwin2_1.png
3,2,2,18,1,1,651.3,nonwin8.png
3,1,2,19,1,1,747.64,wordin2_7.png
3,2,2,20,1,1,851.26,nonwex8.png
3,1,2,21,2,1,820.01,wordex2_5.png
3,2,2,22,1,1,995.86,nonwin2_9.png
3,2,2,23,2,1,571.64,nonwex5.png
3,2,2,24,2,1,907.61,nonwex2_8.png
3,1,2,25,1,1,571.85,wordex5.png
3,2,2,26,2,1,987.88,nonwin2_8.png
3,2,2,27,1,1,539.84,nonwin2_10.png
3,1,2,28,2,1,691.53,wordin2_10.png
3,2,2,29,1,1,827.17,nonwex2_2.png
3,1,2,30,1,1,699.79,wordex8.png
3,2,2,31,1,1,779.81,nonwex2_7.png
3,2,2,32,2,1,1099.79,nonwex3.png
3,2,2,33,2,1,875.47,nonwex6.png
3,2,2,34,1,1,763.09,nonwex1.png
3,2,2,35,1,1,835.08,nonwin2_3.png
3,1,2,36,1,1,827.72,wordex2_2.png
3,1,2,37,1,1,643.04,wordin5.png
3,1,2,38,1,1,795.7,wordin12.png
3,1,2,39,1,1,611.7,wordex2_3.png
3,1,2,40,1,1,707.65,wordin11.png
3,1,3,1,1,1,664.13,wordex1.png
3,1,3,2,1,1,640.11,wordin2_7.png
3,2,3,3,1,1,608.1,nonwin2_9.png
3,1,3,4,1,1,583.81,wordin2_2.png
3,1,3,5,1,1,632.08,wordex2_5.png
3,1,3,6,1,1,711.78,wordin2_6.png
3,1,3,7,1,1,719.52,wordin11.png
3,1,3,8,1,1,591.26,wordin4.png
3,1,3,9,1,1,647.79,wordex2_2.png
3,1,3,10,1,1,800.03,wordin3.png
3,2,3,11,2,1,887.38,nonwex10.png
3,2,3,12,2,1,775.98,nonwex2_2.png
3,2,3,13,1,1,879.96,nonwin2_8.png
3,2,3,14,2,1,919.97,nonwex1.png
3,2,3,15,2,1,1103.93,nonwin2_10.png
3,1,3,16,1,1,735.94,wordex2_6.png
3,2,3,17,2,1,775.25,nonwin6.png
3,1,3,18,1,1,767.9,wordex5.png
3,1,3,19,1,1,847.59,wordex8.png
3,1,3,20,1,1,799.82,wordex2_3.png
3,2,3,21,2,1,1063.85,nonwin8.png
3,2,3,22,2,1,871.88,nonwex3.png
3,2,3,23,2,1,927.18,nonwex2_9.png
3,2,3,24,1,1,831.81,nonwin2_11.png
3,2,3,25,1,1,887.5,nonwex5.png
3,2,3,26,2,1,647.78,nonwex2.png
3,2,3,27,1,1,719.79,nonwin2_3.png
3,2,3,28,1,1,807.76,nonwex6.png
3,2,3,29,2,1,854.84,nonwex2_1.png
3,1,3,30,1,1,799.73,wordin12.png
3,2,3,31,2,1,655.71,nonwex2_7.png
3,1,3,32,1,1,687.73,wordin2_11.png
3,1,3,33,1,1,791.04,wordex9.png
3,2,3,34,2,1,935.71,nonwex2_8.png
3,1,3,35,2,1,871.02,wordin2_12.png
3,1,3,36,1,1,886.79,wordin2_10.png
3,1,3,37,1,1,807.68,wordex2_8.png
3,2,3,38,1,1,719.62,nonwex8.png
3,2,3,39,2,1,775.62,nonwin2_1.png
3,1,3,40,1,1,710.94,wordin5.png
3,2,4,1,1,1,1128.11,nonwin6.png
3,2,4,2,2,1,888.01,nonwex2_1.png
3,2,4,3,2,1,895.99,nonwin2_1.png
3,1,4,4,1,1,808,wordex2_3.png
3,1,4,5,1,1,800.01,wordin5.png
3,1,4,6,1,1,823.46,wordin11.png
3,1,4,7,1,1,855.33,wordex1.png
3,2,4,8,1,1,1031.29,nonwex2_8.png
3,1,4,9,1,1,791.96,wordin2_7.png
3,2,4,10,2,1,823.9,nonwex1.png
3,1,4,11,1,1,871.89,wordin2_2.png
3,2,4,12,2,1,983.93,nonwin2_3.png
3,2,4,13,2,1,1151.93,nonwin2_10.png
3,1,4,14,1,1,791.76,wordin2_10.png
3,1,4,15,1,1,855.83,wordex5.png
3,2,4,16,2,1,807.85,nonwex2_9.png
3,2,4,17,2,1,871.15,nonwex3.png
3,2,4,18,2,1,863.78,nonwin2_11.png
3,2,4,19,2,1,1015.87,nonwex10.png
3,2,4,20,2,1,919.82,nonwex8.png
3,1,4,21,1,1,751.47,wordin4.png
3,2,4,22,2,1,823.77,nonwex2_7.png
3,2,4,23,1,1,847.74,nonwex2_2.png
3,1,4,24,2,1,943.7,wordin2_6.png
3,2,4,25,2,1,895.71,nonwex2.png
3,1,4,26,1,1,759.06,wordex9.png
3,1,4,27,1,1,767.08,wordex2_5.png
3,1,4,28,2,1,1023.03,wordin2_12.png
3,2,4,29,1,1,967.01,nonwex5.png
3,1,4,30,1,1,759.65,wordin12.png
3,2,4,31,1,1,758.97,nonwex6.png
3,2,4,32,1,1,919.64,nonwin2_9.png
3,1,4,33,1,1,927.6,wordin3.png
3,1,4,34,1,1,847.59,wordex2_2.png
3,1,4,35,1,1,1007.4,wordex8.png
3,1,4,36,1,1,951.03,wordin2_11.png
3,1,4,37,1,1,983.25,wordex2_6.png
3,2,4,38,2,1,894.87,nonwin8.png
3,1,4,39,1,1,911.51,wordex2_8.png
3,2,4,40,2,1,951.23,nonwin2_8.png
3,2,5,1,1,1,891.72,nonwin2_9.png
3,1,5,2,1,1,875.05,wordex2_5.png
3,1,5,3,1,1,875.03,wordin4.png
3,2,5,4,2,1,899.66,nonwin2_11.png
3,2,5,5,2,1,987.47,nonwex3.png
3,1,5,6,1,1,787.64,wordex1.png
3,1,5,7,1,1,818.98,wordin2_2.png
3,2,5,8,2,1,826.97,nonwin6.png
3,2,5,9,2,1,923.58,nonwin2_10.png
3,1,5,10,1,1,899.62,wordex8.png
3,2,5,11,2,1,779.61,nonwex1.png
3,2,5,12,2,1,1019.56,nonwex2_7.png
3,2,5,13,1,1,867.55,nonwex5.png
3,2,5,14,2,1,883.25,nonwex8.png
3,2,5,15,2,1,867.52,nonwin2_3.png
3,2,5,16,2,1,859.25,nonwin2_8.png
3,2,5,17,2,1,771.5,nonwex10.png
3,1,5,18,1,1,995.38,wordex9.png
3,2,5,19,2,1,995.11,nonwin2_1.png
3,1,5,20,1,1,851.18,wordin3.png
3,1,5,21,1,1,1019.43,wordin12.png
3,1,5,22,1,1,1003.29,wordex5.png
3,1,5,23,1,1,931.13,wordin11.png
3,1,5,24,1,1,971.12,wordex2_8.png
3,2,5,25,2,1,898.75,nonwex2.png
3,1,5,26,2,1,1050.73,wordin2_12.png
3,2,5,27,2,1,1083.07,nonwex2_8.png
3,2,5,28,1,1,1035.3,nonwex6.png
3,1,5,29,1,1,971.36,wordin2_10.png
3,1,5,30,1,1,962.67,wordin2_11.png
3,1,5,31,1,1,995.33,wordin5.png
3,2,5,32,2,1,931.29,nonwex2_2.png
3,2,5,33,2,1,947.27,nonwin8.png
3,2,5,34,1,1,946.99,nonwex2_9.png
3,1,5,35,1,1,1002.62,wordex2_2.png
3,1,5,36,1,1,1018.94,wordin2_6.png
3,1,5,37,1,1,979.21,wordin2_7.png
3,1,5,38,1,1,955.22,wordex2_3.png
3,1,5,39,1,1,939.19,wordex2_6.png
3,2,5,40,2,1,906.53,nonwex2_1.png
3,2,6,1,2,1,755.54,nonwex3.png
3,2,6,2,2,1,827.22,nonwin6.png
3,1,6,3,1,1,827.51,wordin5.png
3,2,6,4,2,1,971.2,nonwex2_8.png
3,2,6,5,1,1,979.24,nonwex6.png
3,1,6,6,1,1,874.82,wordex9.png
3,1,6,7,1,1,874.83,wordex2_6.png
3,2,6,8,2,1,1082.79,nonwex2.png
3,1,6,9,1,1,1059.41,wordex2_8.png
3,2,6,10,1,1,1058.63,nonwin2_1.png
3,2,6,11,2,1,1051.11,nonwex2_2.png
3,2,6,12,1,1,898.48,nonwex2_7.png
3,1,6,13,1,1,859.36,wordex5.png
3,1,6,14,1,1,851.36,wordin2_10.png
3,2,6,15,2,1,818.69,nonwin2_10.png
3,1,6,16,1,1,891.32,wordin2_11.png
3,1,6,17,2,1,915.03,wordex2_5.png
3,2,6,18,1,1,1003.29,nonwex2_9.png
3,2,6,19,1,1,1002.94,nonwex8.png
3,2,6,20,1,1,915.25,nonwex10.png
3,1,6,21,1,1,866.6,wordin2_2.png
3,1,6,22,1,1,1035.19,wordin11.png
3,2,6,23,2,1,850.59,nonwin8.png
3,1,6,24,1,1,859.23,wordin2_7.png
3,1,6,25,1,1,898.57,wordex2_2.png
3,2,6,26,2,1,755.19,nonwex2_1.png
3,1,6,27,1,1,723.19,wordex8.png
3,1,6,28,1,1,899.17,wordex2_3.png
3,2,6,29,2,1,835.06,nonwin2_8.png
3,2,6,30,1,1,987.2,nonwex5.png
3,2,6,31,2,1,874.84,nonwex1.png
3,1,6,32,1,1,955.11,wordin4.png
3,1,6,33,2,1,794.47,wordin2_12.png
3,1,6,34,1,1,898.16,wordin3.png
3,2,6,35,2,1,834.44,nonwin2_9.png
3,1,6,36,1,1,786.77,wordex1.png
3,2,6,37,2,1,882.4,nonwin2_11.png
3,1,6,38,1,1,762.4,wordin2_6.png
3,1,6,39,1,1,819.02,wordin12.png
3,2,6,40,2,1,802.36,nonwin2_3.png
3,1,7,1,1,1,881.97,wordin2_10.png
3,1,7,2,1,1,785.67,wordin2_7.png
3,2,7,3,2,1,753.29,nonwex1.png
3,2,7,4,2,1,825.91,nonwex10.png
3,1,7,5,1,1,657.9,wordex8.png
3,1,7,6,1,1,665.9,wordin2_6.png
3,1,7,7,2,1,881.37,wordin2_12.png
3,2,7,8,2,1,833.22,nonwin2_10.png
3,2,7,9,2,1,833.84,nonwex2_2.png
3,2,7,10,2,1,793.2,nonwin8.png
3,2,7,11,2,1,801.81,nonwex2_8.png
3,1,7,12,1,1,769.85,wordex1.png
3,2,7,13,1,1,809.79,nonwex5.png
3,2,7,14,1,1,1057.5,nonwin2_1.png
3,1,7,15,1,1,945.8,wordin4.png
3,2,7,16,2,1,841.77,nonwex3.png
3,1,7,17,1,1,857.81,wordex2_3.png
3,1,7,18,1,1,873.73,wordin5.png
3,1,7,19,1,1,833.74,wordin12.png
3,2,7,20,1,1,945.76,nonwex2_1.png
3,1,7,21,1,1,889.69,wordex2_5.png
3,1,7,22,1,1,817.68,wordex2_6.png
3,2,7,23,2,1,825.01,nonwex2_7.png
3,1,7,24,1,1,769.67,wordex2_8.png
3,2,7,25,2,1,777.35,nonwin2_9.png
3,1,7,26,1,1,769.34,wordin2_2.png
3,2,7,27,2,1,985.74,nonwin6.png
3,2,7,28,2,1,961.53,nonwex2_9.png
3,1,7,29,1,1,705.33,wordex5.png
3,1,7,30,1,1,689.56,wordin11.png
3,2,7,31,1,1,600.92,nonwin2_8.png
3,2,7,32,1,1,864.62,nonwin2_11.png
3,1,7,33,1,1,696.89,wordin2_11.png
3,1,7,34,1,1,720.87,wordex9.png
3,2,7,35,2,1,673.5,nonwex2.png
3,1,7,36,1,1,648.86,wordex2_2.png
3,2,7,37,2,1,664.84,nonwin2_3.png
3,2,7,38,2,1,729.47,nonwex6.png
3,1,7,39,1,1,680.81,wordin3.png
3,2,7,40,2,1,849.46,nonwex8.png
3,1,8,1,2,1,756.74,wordin2_12.png
3,2,8,2,1,1,820.53,nonwex8.png
3,1,8,3,1,1,628.03,wordin2_2.png
3,1,8,4,1,1,436.06,wordex1.png
3,2,8,5,2,1,636.4,nonwin2_9.png
3,2,8,6,2,1,924.07,nonwin6.png
3,2,8,7,1,1,644.02,nonwex3.png
3,1,8,8,1,1,516.66,wordex5.png
3,1,8,9,1,1,539.99,wordin2_10.png
3,2,8,10,1,1,779.97,nonwin2_8.png
3,2,8,11,1,1,820.61,nonwex2_7.png
3,1,8,12,1,1,660.31,wordex2_5.png
3,2,8,13,1,1,828.31,nonwex2_8.png
3,1,8,14,1,1,748.57,wordin2_7.png
3,2,8,15,1,1,771.91,nonwex6.png
3,2,8,16,1,1,731.7,nonwin2_3.png
3,1,8,17,1,1,731.87,wordex9.png
3,1,8,18,1,1,628.51,wordin12.png
3,2,8,19,1,1,660.5,nonwex2_1.png
3,2,8,20,1,1,675.85,nonwex2.png
3,2,8,21,1,1,988.18,nonwex10.png
3,1,8,22,1,1,724.17,wordex2_2.png
3,2,8,23,1,1,620.45,nonwin2_1.png
3,1,8,24,2,1,827.8,wordex2_3.png
3,2,8,25,1,1,780.43,nonwex2_2.png
3,2,8,26,1,1,948.4,nonwex5.png
3,2,8,27,1,1,828.38,nonwin2_11.png
3,1,8,28,1,1,620.39,wordin5.png
3,1,8,29,1,1,700.35,wordin2_11.png
3,2,8,30,2,1,724.34,nonwin8.png
3,1,8,31,1,1,644.34,wordin2_6.png
3,2,8,32,2,1,755.69,nonwex2_9.png
3,1,8,33,1,1,676.04,wordin4.png
3,2,8,34,1,1,571.66,nonwex1.png
3,1,8,35,1,1,547.65,wordex2_8.png
3,2,8,36,2,1,564.29,nonwin2_10.png
3,1,8,37,1,1,627.64,wordex8.png
3,1,8,38,1,1,507.5,wordin3.png
3,1,8,39,1,1,476.11,wordin11.png
3,1,8,40,1,1,555.59,wordex2_6.png
4,2,1,1,1,1,1521.2,nonwin12.png
4,2,1,2,2,1,1103.96,nonwin1.png
4,2,1,3,0,0,0,nonwin10.png
4,2,1,4,1,1,1033.19,nonwin2.png
4,2,1,5,1,1,769.16,nonwex2_3.png
4,2,1,6,2,1,921.17,nonwex2_12.png
4,2,1,7,1,1,1009.13,nonwin2_3.png
4,1,1,8,1,1,841.13,wordex2.png
4,1,1,9,1,1,793.1,wordex12.png
4,2,1,10,2,1,873.08,nonwex10.png
4,2,1,11,2,1,945.07,nonwex11.png
4,1,1,12,1,1,865.07,wordex2_10.png
4,2,1,13,2,1,777.06,nonwin3.png
4,2,1,14,2,1,929.05,nonwex5.png
4,1,1,15,1,1,761.02,wordin10.png
4,2,1,16,2,1,888.99,nonwex2_2.png
4,1,1,17,1,1,577,wordin12.png
4,1,1,18,1,1,633,wordex2_7.png
4,2,1,19,2,1,840.97,nonwex2_9.png
4,1,1,20,1,1,656.95,wordin3.png
4,1,1,21,1,1,632.95,wordin9.png
4,1,1,22,1,1,608.91,wordex10.png
4,1,1,23,1,1,576.9,wordin2_8.png
4,2,1,24,2,1,848.9,nonwin2_10.png
4,1,1,25,1,1,488.9,wordex2_4.png
4,1,1,26,1,1,752.86,wordex5.png
4,2,1,27,2,1,864.87,nonwin2_8.png
4,1,1,28,1,1,512.85,wordin2_11.png
4,2,1,29,2,1,1136.83,nonwex2_6.png
4,1,1,30,1,1,591.6,wordex2_5.png
4,2,1,31,1,1,959.58,nonwin2_4.png
4,1,1,32,1,1,568.79,wordin2_2.png
4,1,1,33,1,1,527.31,wordex2_2.png
4,2,1,34,2,1,768.75,nonwex1.png
4,2,1,35,2,1,808.67,nonwin2_1.png
4,1,1,36,1,1,535.54,wordin2.png
4,2,1,37,2,1,583.45,nonwex2_5.png
4,1,1,38,1,1,552.68,wordin2_6.png
4,1,1,39,1,1,600.67,wordin5.png
4,1,1,40,1,1,511.49,wordin6.png
4,2,2,1,2,1,930.19,nonwin2_1.png
4,1,2,2,1,1,642.18,wordex2_7.png
4,2,2,3,2,1,1034.14,nonwex11.png
4,1,2,4,1,1,488.93,wordex5.png
4,2,2,5,0,0,0,nonwin2.png
4,1,2,6,1,1,458.14,wordin2_8.png
4,1,2,7,1,1,482.1,wordex2_2.png
4,2,2,8,1,1,880.83,nonwin2_3.png
4,1,2,9,1,1,410.07,wordin6.png
4,2,2,10,2,1,730.06,nonwin1.png
4,2,2,11,2,1,818.12,nonwin3.png
4,2,2,12,1,1,968.87,nonwin2_8.png
4,2,2,13,1,1,618.02,nonwex2_6.png
4,2,2,14,1,1,858.02,nonwex2_9.png
4,1,2,15,1,1,481.97,wordex2_4.png
4,1,2,16,1,1,529.98,wordin10.png
4,2,2,17,1,1,841.97,nonwin2_4.png
4,1,2,18,1,1,552.75,wordin2_2.png
4,2,2,19,2,1,673.96,nonwin2_10.png
4,2,2,20,2,1,897.93,nonwex2_12.png
4,1,2,21,1,1,656.7,wordex12.png
4,1,2,22,1,1,480.63,wordex10.png
4,2,2,23,2,1,849.89,nonwin10.png
4,2,2,24,2,1,1129.87,nonwin12.png
4,1,2,25,1,1,601.86,wordin2_6.png
4,2,2,26,2,1,681.84,nonwex5.png
4,1,2,27,1,1,496.58,wordin12.png
4,2,2,28,1,1,833.82,nonwex2_3.png
4,1,2,29,1,1,489.75,wordex2_10.png
4,1,2,30,1,1,648.54,wordin9.png
4,1,2,31,1,1,497.79,wordin3.png
4,1,2,32,1,1,465.78,wordin5.png
4,1,2,33,1,1,481.65,wordex2.png
4,1,2,34,1,1,336.52,wordex2_5.png
4,2,2,35,1,1,521.73,nonwex10.png
4,2,2,36,1,1,793.73,nonwex2_2.png
4,2,2,37,2,1,825.7,nonwex1.png
4,1,2,38,1,1,513.68,wordin2.png
4,2,2,39,2,1,633.67,nonwex2_5.png
4,1,2,40,1,1,609.67,wordin2_11.png
4,2,3,1,1,1,1069.93,nonwin2_1.png
4,1,3,2,1,1,501.94,wordex2.png
4,2,3,3,2,1,701.28,nonwin2_4.png
4,1,3,4,1,1,445.88,wordin3.png
4,2,3,5,2,1,581.84,nonwex2_12.png
4,2,3,6,2,1,716.64,nonwin12.png
4,2,3,7,2,1,725.85,nonwex2_5.png
4,1,3,8,1,1,493.83,wordex10.png
4,1,3,9,1,1,397.82,wordin2.png
4,1,3,10,1,1,509.78,wordin5.png
4,1,3,11,1,1,349.78,wordex12.png
4,2,3,12,2,1,693.76,nonwex1.png
4,1,3,13,1,1,437.77,wordex2_2.png
4,1,3,14,1,1,452.49,wordex2_10.png
4,2,3,15,2,1,589.74,nonwex2_2.png
4,2,3,16,2,1,565.71,nonwex11.png
4,1,3,17,1,1,637.66,wordin2_11.png
4,1,3,18,1,1,501.68,wordex5.png
4,2,3,19,2,1,597.68,nonwin2_3.png
4,2,3,20,2,1,725.66,nonwin2_10.png
4,2,3,21,2,1,469.06,nonwin2_8.png
4,2,3,22,2,1,469.65,nonwin2.png
4,1,3,23,1,1,597.61,wordin9.png
4,1,3,24,1,1,829.63,wordin10.png
4,2,3,25,2,1,1053.61,nonwin3.png
4,1,3,26,1,1,549.58,wordin6.png
4,2,3,27,2,1,877.57,nonwex5.png
4,2,3,28,2,1,597.55,nonwex10.png
4,1,3,29,1,1,517.52,wordex2_5.png
4,1,3,30,1,1,509.52,wordin2_2.png
4,1,3,31,1,1,477.52,wordin2_6.png
4,2,3,32,2,1,605.5,nonwin1.png
4,2,3,33,2,1,677.49,nonwex2_9.png
4,1,3,34,1,1,629.48,wordex2_7.png
4,2,3,35,2,1,749.47,nonwin10.png
4,1,3,36,1,1,485.45,wordin12.png
4,1,3,37,1,1,725.44,wordex2_4.png
4,2,3,38,2,1,748.2,nonwex2_3.png
4,1,3,39,1,1,469.4,wordin2_8.png
4,2,3,40,2,1,476.19,nonwex2_6.png
4,1,4,1,1,1,552.28,wordin2_2.png
4,1,4,2,1,1,464.26,wordex5.png
4,1,4,3,1,1,496.25,wordin2.png
4,2,4,4,2,1,616.24,nonwex2_3.png
4,2,4,5,2,1,664.23,nonwin2_1.png
4,1,4,6,1,1,520.2,wordin9.png
4,1,4,7,1,1,584.21,wordex12.png
4,1,4,8,1,1,440.18,wordin2_11.png
4,1,4,9,1,1,479.52,wordin12.png
4,2,4,10,2,1,624.15,nonwin2_4.png
4,1,4,11,1,1,590.94,wordex2_7.png
4,2,4,12,2,1,616.13,nonwex2_12.png
4,2,4,13,2,1,752.11,nonwex2_2.png
4,1,4,14,1,1,376.09,wordin2_8.png
4,1,4,15,1,1,678.82,wordin2_6.png
4,2,4,16,2,1,680.08,nonwin2_10.png
4,1,4,17,1,1,536.07,wordin6.png
4,1,4,18,1,1,880.06,wordin3.png
4,2,4,19,2,1,528.03,nonwin1.png
4,1,4,20,1,1,495.97,wordin5.png
4,2,4,21,2,1,608.02,nonwex2_5.png
4,2,4,22,2,1,798.71,nonwin12.png
4,2,4,23,2,1,775.98,nonwin3.png
4,1,4,24,1,1,630.75,wordex10.png
4,1,4,25,1,1,919.95,wordex2_2.png
4,2,4,26,2,1,943.94,nonwex1.png
4,2,4,27,2,1,591.94,nonwex2_6.png
4,2,4,28,1,1,791.91,nonwin2_3.png
4,1,4,29,1,1,591.91,wordex2_10.png
4,2,4,30,2,1,695.84,nonwin2.png
4,2,4,31,2,1,703.88,nonwex2_9.png
4,1,4,32,1,1,575.87,wordin10.png
4,2,4,33,2,1,790.63,nonwin10.png
4,2,4,34,2,1,623.81,nonwex11.png
4,1,4,35,1,1,751.82,wordex2.png
4,1,4,36,1,1,527.81,wordex2_4.png
4,2,4,37,2,1,687.74,nonwin2_8.png
4,1,4,38,1,1,527.79,wordex2_5.png
4,2,4,39,2,1,775.74,nonwex5.png
4,2,4,40,2,1,607.17,nonwex10.png
4,1,5,1,1,1,839.41,wordex12.png
4,2,5,2,1,1,703.41,nonwin2_3.png
4,2,5,3,2,1,743.34,nonwin2_10.png
4,2,5,4,1,1,887.36,nonwex2_9.png
4,1,5,5,1,1,791.36,wordin2_6.png
4,1,5,6,1,1,439.39,wordex2_10.png
4,1,5,7,1,1,294.07,wordex5.png
4,2,5,8,1,1,263.31,nonwin2_1.png
4,2,5,9,2,1,511.3,nonwex11.png
4,1,5,10,1,1,463.29,wordin2_2.png
4,1,5,11,1,1,327.25,wordin6.png
4,2,5,12,1,1,375.25,nonwin10.png
4,1,5,13,1,1,543.24,wordex2.png
4,1,5,14,1,1,487.21,wordex2_7.png
4,1,5,15,1,1,391.21,wordin5.png
4,2,5,16,1,1,303.2,nonwin2.png
4,2,5,17,2,1,775.19,nonwex5.png
4,1,5,18,1,1,463.26,wordex10.png
4,1,5,19,1,1,479.14,wordex2_4.png
4,2,5,20,2,1,495.16,nonwin2_4.png
4,1,5,21,1,1,447.13,wordin3.png
4,2,5,22,1,1,727.13,nonwex2_3.png
4,2,5,23,0,0,0,nonwex2_2.png
4,1,5,24,1,1,399.06,wordin10.png
4,1,5,25,1,1,605.82,wordin2.png
4,2,5,26,2,1,911.17,nonwex1.png
4,2,5,27,2,1,599.05,nonwin12.png
4,2,5,28,1,1,567.04,nonwin3.png
4,1,5,29,1,1,503.02,wordex2_5.png
4,2,5,30,2,1,615.05,nonwin1.png
4,2,5,31,1,1,767,nonwex2_5.png
4,2,5,32,2,1,798.99,nonwex2_12.png
4,2,5,33,2,1,838.98,nonwex10.png
4,1,5,34,1,1,462.96,wordin2_8.png
4,1,5,35,1,1,678.93,wordex2_2.png
4,2,5,36,1,1,358.94,nonwin2_8.png
4,1,5,37,1,1,549.69,wordin12.png
4,1,5,38,1,1,526.8,wordin2_11.png
4,2,5,39,2,1,766.89,nonwex2_6.png
4,1,5,40,1,1,542.88,wordin9.png
4,2,6,1,2,1,674.45,nonwex1.png
4,2,6,2,0,0,0,nonwex2_3.png
4,1,6,3,1,1,442.38,wordex2_4.png
4,1,6,4,1,1,529.17,wordin3.png
4,2,6,5,1,1,802.36,nonwin3.png
4,1,6,6,1,1,522.34,wordin2_11.png
4,1,6,7,1,1,674.33,wordin9.png
4,1,6,8,1,1,786.33,wordin12.png
4,2,6,9,2,1,546.31,nonwin2_4.png
4,1,6,10,1,1,458.29,wordin5.png
4,1,6,11,1,1,490.18,wordex2_7.png
4,2,6,12,2,1,506.28,nonwin2_10.png
4,2,6,13,2,1,577.05,nonwex10.png
4,1,6,14,1,1,442.23,wordin2.png
4,1,6,15,2,1,386.23,wordex10.png
4,1,6,16,1,1,496.98,wordex2_2.png
4,1,6,17,1,1,522.18,wordex2_10.png
4,2,6,18,2,1,706.21,nonwin10.png
4,1,6,19,1,1,602.18,wordin2_2.png
4,1,6,20,1,1,498.16,wordin2_8.png
4,1,6,21,1,1,362.16,wordex12.png
4,1,6,22,1,1,418.11,wordex5.png
4,2,6,23,2,1,530.12,nonwex2_6.png
4,1,6,24,1,1,633.43,wordin2_6.png
4,1,6,25,1,1,546.1,wordin10.png
4,2,6,26,2,1,706.07,nonwin1.png
4,1,6,27,1,1,489.92,wordin6.png
4,2,6,28,2,1,802.05,nonwex11.png
4,2,6,29,1,1,994.02,nonwex2_9.png
4,2,6,30,2,1,818.04,nonwin2_1.png
4,2,6,31,2,1,920.75,nonwex5.png
4,1,6,32,1,1,762.01,wordex2_5.png
4,2,6,33,2,1,793.99,nonwex2_12.png
4,2,6,34,2,1,985.94,nonwin2_3.png
4,2,6,35,2,1,889.97,nonwex2_2.png
4,2,6,36,2,1,905.93,nonwin12.png
4,2,6,37,2,1,768.71,nonwin2.png
4,1,6,38,1,1,729.85,wordex2.png
4,2,6,39,2,1,705.91,nonwin2_8.png
4,2,6,40,2,1,761.89,nonwex2_5.png
4,1,7,1,1,1,728.33,wordin2.png
4,1,7,2,1,1,456.28,wordin6.png
4,1,7,3,1,1,352.26,wordin2_11.png
4,2,7,4,2,1,552.19,nonwex11.png
4,2,7,5,2,1,456.26,nonwex10.png
4,1,7,6,1,1,368.24,wordin2_6.png
4,1,7,7,2,1,360.23,wordex12.png
4,2,7,8,1,1,248.2,nonwex2_2.png
4,1,7,9,1,1,408.19,wordin2_2.png
4,2,7,10,2,1,544.18,nonwin2.png
4,2,7,11,2,1,584.19,nonwin2_1.png
4,2,7,12,2,1,568.15,nonwin2_3.png
4,2,7,13,2,1,704.12,nonwin1.png
4,2,7,14,2,1,640.13,nonwex5.png
4,1,7,15,1,1,536.1,wordin2_8.png
4,2,7,16,2,1,720.11,nonwin2_4.png
4,1,7,17,1,1,568.08,wordin3.png
4,1,7,18,1,1,504.05,wordex5.png
4,2,7,19,2,1,880.07,nonwex2_3.png
4,1,7,20,1,1,536.05,wordex2_2.png
4,1,7,21,1,1,488.04,wordin10.png
4,2,7,22,1,1,912.04,nonwex2_6.png
4,1,7,23,1,1,440.03,wordex2_7.png
4,1,7,24,1,1,415.97,wordex2_10.png
4,2,7,25,2,1,679.99,nonwex2_12.png
4,2,7,26,2,1,751.96,nonwin12.png
4,2,7,27,2,1,743.97,nonwex2_5.png
4,2,7,28,2,1,775.93,nonwin2_10.png
4,2,7,29,2,1,1022.71,nonwex1.png
4,1,7,30,1,1,439.91,wordex2_4.png
4,1,7,31,1,1,439.91,wordex2_5.png
4,1,7,32,1,1,470.65,wordin5.png
4,1,7,33,1,1,463.88,wordin9.png
4,2,7,34,2,1,711.84,nonwin10.png
4,2,7,35,1,1,735.85,nonwex2_9.png
4,1,7,36,1,1,743.81,wordex10.png
4,1,7,37,1,1,647.83,wordex2.png
4,2,7,38,2,1,791.7,nonwin3.png
4,2,7,39,2,1,719.8,nonwin2_8.png
4,1,7,40,1,1,591.77,wordin12.png
4,1,8,1,1,1,573.21,wordin2_11.png
4,2,8,2,2,1,757.19,nonwex5.png
4,2,8,3,1,1,765.17,nonwin2_8.png
4,1,8,4,1,1,413.16,wordex10.png
4,1,8,5,1,1,365.15,wordin5.png
4,2,8,6,2,1,733.13,nonwex2_5.png
4,2,8,7,2,1,709.09,nonwex2_12.png
4,2,8,8,2,1,557.08,nonwin3.png
4,1,8,9,1,1,501.09,wordin2_2.png
4,1,8,10,1,1,413.08,wordex2_2.png
4,2,8,11,2,1,741.07,nonwin2_3.png
4,2,8,12,2,1,580.46,nonwex10.png
4,2,8,13,2,1,757.05,nonwin2_1.png
4,2,8,14,1,1,667.81,nonwex2_9.png
4,1,8,15,1,1,485.02,wordin2_8.png
4,2,8,16,2,1,636.99,nonwex2_3.png
4,2,8,17,2,1,525.02,nonwex2_2.png
4,1,8,18,1,1,580.98,wordex2_5.png
4,1,8,19,1,1,548.98,wordin9.png
4,1,8,20,1,1,619.72,wordin6.png
4,2,8,21,2,1,716.94,nonwin12.png
4,1,8,22,1,1,516.92,wordin2.png
4,1,8,23,2,1,740.89,wordin3.png
4,1,8,24,1,1,516.89,wordex5.png
4,2,8,25,2,1,556.88,nonwin2.png
4,1,8,26,1,1,620.85,wordex2_10.png
4,1,8,27,1,1,412.85,wordex2.png
4,2,8,28,2,1,675.6,nonwex2_6.png
4,2,8,29,2,1,652.77,nonwin1.png
4,1,8,30,1,1,580.78,wordex12.png
4,2,8,31,2,1,596.77,nonwex11.png
4,1,8,32,1,1,571.58,wordin10.png
4,1,8,33,1,1,1011.54,wordin12.png
4,1,8,34,1,1,492.74,wordex2_4.png
4,2,8,35,2,1,636.75,nonwin10.png
4,1,8,36,2,1,564.73,wordex2_7.png
4,2,8,37,2,1,540.72,nonwin2_10.png
4,2,8,38,2,1,348.69,nonwex1.png
4,2,8,39,2,1,788.69,nonwin2_4.png
4,1,8,40,1,1,420.68,wordin2_6.png
5,2,1,1,2,1,1420.39,nonwin2_5.png
5,2,1,2,1,1,1156.39,nonwex2_12.png
5,2,1,3,2,1,1180.37,nonwex2_10.png
5,1,1,4,1,1,868.35,wordex2_5.png
5,1,1,5,1,1,660.33,wordex4.png
5,2,1,6,1,1,980.38,nonwin11.png
5,1,1,7,2,1,1092.31,wordex5.png
5,2,1,8,1,1,812.3,nonwin2_10.png
5,1,1,9,1,1,916.29,wordin1.png
5,2,1,10,2,1,788.28,nonwex2_7.png
5,2,1,11,2,1,988.26,nonwin7.png
5,2,1,12,1,1,780.26,nonwin12.png
5,1,1,13,1,1,684.22,wordex7.png
5,1,1,14,1,1,644.21,wordin2_2.png
5,2,1,15,2,1,652.2,nonwin2_9.png
5,1,1,16,1,1,820.15,wordin2_10.png
5,1,1,17,0,0,0,wordin2_6.png
5,2,1,18,1,1,564.14,nonwin2_1.png
5,1,1,19,2,1,564.12,wordin2.png
5,1,1,20,2,1,780.15,wordin2_12.png
5,2,1,21,2,1,884.13,nonwin1.png
5,2,1,22,1,1,852.17,nonwex1.png
5,1,1,23,1,1,716.09,wordin11.png
5,2,1,24,2,1,1036.08,nonwin8.png
5,2,1,25,1,1,700.06,nonwex4.png
5,1,1,26,1,1,628.07,wordex2_9.png
5,2,1,27,1,1,716.04,nonwex6.png
5,2,1,28,1,1,699.4,nonwex2_2.png
5,2,1,29,1,1,699.36,nonwex9.png
5,1,1,30,2,1,787.27,wordin2_8.png
5,2,1,31,1,1,707.44,nonwin4.png
5,1,1,32,1,1,619.34,wordex2_8.png
5,1,1,33,1,1,667.92,wordex1.png
5,1,1,34,1,1,571.95,wordex9.png
5,1,1,35,1,1,627.69,wordin9.png
5,1,1,36,1,1,643.92,wordex2_4.png
5,1,1,37,1,1,699.93,wordin7.png
5,2,1,38,2,1,795.61,nonwin9.png
5,1,1,39,1,1,619.58,wordin10.png
5,2,1,40,1,1,731.22,nonwex2_3.png
5,2,2,1,1,1,889.66,nonwex2_12.png
5,1,2,2,1,1,713.37,wordin9.png
5,1,2,3,2,1,721.6,wordin2.png
5,2,2,4,1,1,721.59,nonwex6.png
5,1,2,5,1,1,657.6,wordex2_9.png
5,1,2,6,1,1,561.55,wordex1.png
5,2,2,7,1,1,841.54,nonwin2_5.png
5,2,2,8,1,1,785.55,nonwin4.png
5,2,2,9,1,1,736.91,nonwin2_9.png
5,1,2,10,1,1,577.49,wordin10.png
5,1,2,11,1,1,777.49,wordin2_6.png
5,2,2,12,2,1,729.17,nonwin8.png
5,1,2,13,1,1,697.45,wordex2_5.png
5,2,2,14,2,1,696.8,nonwin9.png
5,2,2,15,2,1,825.14,nonwex9.png
5,1,2,16,1,1,585.53,wordex7.png
5,2,2,17,1,1,817.42,nonwex2_2.png
5,1,2,18,1,1,633.39,wordin2_8.png
5,1,2,19,1,1,649.41,wordin7.png
5,2,2,20,1,1,849.36,nonwex2_10.png
5,1,2,21,2,1,817.35,wordex5.png
5,2,2,22,1,1,705.45,nonwin1.png
5,2,2,23,2,1,897.08,nonwin7.png
5,1,2,24,1,1,721.17,wordex9.png
5,2,2,25,1,1,697.04,nonwin2_10.png
5,1,2,26,1,1,784.67,wordex4.png
5,1,2,27,1,1,545.28,wordin2_2.png
5,2,2,28,2,1,713.26,nonwin2_1.png
5,2,2,29,2,1,737.24,nonwex4.png
5,2,2,30,2,1,793.24,nonwex2_7.png
5,2,2,31,1,1,769.21,nonwin11.png
5,1,2,32,1,1,593.21,wordex2_4.png
5,1,2,33,1,1,553.18,wordin11.png
5,2,2,34,1,1,721.17,nonwex1.png
5,1,2,35,1,1,697.18,wordin2_10.png
5,1,2,36,1,1,520.86,wordex2_8.png
5,2,2,37,1,1,728.88,nonwin12.png
5,1,2,38,1,1,569.04,wordin1.png
5,1,2,39,2,1,641.12,wordin2_12.png
5,2,2,40,1,1,753.09,nonwex2_3.png
5,1,3,1,1,1,681.04,wordin10.png
5,1,3,2,1,1,769.05,wordex1.png
5,1,3,3,1,1,665.02,wordin2.png
5,1,3,4,1,1,768.99,wordin2_8.png
5,1,3,5,1,1,633.01,wordex5.png
5,2,3,6,1,1,1112.12,nonwin4.png
5,2,3,7,1,1,784.91,nonwex1.png
5,2,3,8,1,1,664.28,nonwex2_3.png
5,1,3,9,1,1,472.93,wordex2_4.png
5,1,3,10,1,1,480.92,wordin2_10.png
5,1,3,11,2,1,544.9,wordin2_12.png
5,1,3,12,1,1,512.88,wordex2_8.png
5,2,3,13,2,1,824.86,nonwin2_9.png
5,2,3,14,1,1,568.86,nonwex2_7.png
5,1,3,15,1,1,488.57,wordin2_6.png
5,1,3,16,1,1,392.87,wordin7.png
5,1,3,17,1,1,408.29,wordex2_9.png
5,2,3,18,2,1,640.4,nonwex2_12.png
5,2,3,19,1,1,728.79,nonwin2_5.png
5,2,3,20,1,1,704.78,nonwex6.png
5,2,3,21,1,1,840.76,nonwex4.png
5,2,3,22,1,1,648.74,nonwex2_10.png
5,1,3,23,1,1,624.5,wordex4.png
5,2,3,24,1,1,648.75,nonwin2_10.png
5,1,3,25,1,1,632.7,wordex2_5.png
5,2,3,26,1,1,728.46,nonwin2_1.png
5,1,3,27,1,1,504.03,wordin2_2.png
5,1,3,28,1,1,464.67,wordin1.png
5,2,3,29,1,1,728.64,nonwin11.png
5,2,3,30,1,1,704.64,nonwex9.png
5,2,3,31,1,1,744.63,nonwin12.png
5,1,3,32,1,1,520.61,wordin11.png
5,1,3,33,1,1,543.97,wordex7.png
5,1,3,34,1,1,496.66,wordex9.png
5,1,3,35,1,1,480.55,wordin9.png
5,2,3,36,1,1,839.86,nonwex2_2.png
5,2,3,37,1,1,1000.54,nonwin8.png
5,2,3,38,1,1,1208.54,nonwin7.png
5,2,3,39,1,1,656.51,nonwin1.png
5,2,3,40,2,1,743.86,nonwin9.png
5,2,4,1,1,1,666.89,nonwin2_5.png
5,2,4,2,1,1,618.87,nonwex2_3.png
5,1,4,3,1,1,530.57,wordex9.png
5,1,4,4,1,1,442.56,wordin9.png
5,1,4,5,1,1,474.83,wordex1.png
5,1,4,6,1,1,394.8,wordin2_10.png
5,2,4,7,2,1,786.15,nonwin1.png
5,1,4,8,1,1,474.82,wordin11.png
5,2,4,9,2,1,634.7,nonwin2_9.png
5,2,4,10,1,1,578.79,nonwin2_10.png
5,1,4,11,1,1,594.59,wordin2_6.png
5,2,4,12,1,1,690.72,nonwin12.png
5,1,4,13,1,1,586.7,wordex2_5.png
5,1,4,14,1,1,418.04,wordex7.png
5,1,4,15,1,1,402.68,wordin7.png
5,2,4,16,2,1,650.69,nonwex2_2.png
5,1,4,17,1,1,378.72,wordin10.png
5,1,4,18,1,1,378.35,wordin1.png
5,2,4,19,1,1,610.62,nonwin11.png
5,2,4,20,1,1,594.61,nonwex6.png
5,2,4,21,2,1,705.82,nonwin2_1.png
5,1,4,22,1,1,386.59,wordin2_2.png
5,2,4,23,1,1,225.93,nonwex9.png
5,1,4,24,1,1,650.56,wordex2_9.png
5,1,4,25,1,1,306.37,wordex4.png
5,1,4,26,1,1,362.53,wordin2.png
5,2,4,27,1,1,434.51,nonwin4.png
5,1,4,28,1,1,426.52,wordin2_8.png
5,1,4,29,2,1,466.51,wordin2_12.png
5,1,4,30,1,1,498.47,wordex5.png
5,2,4,31,2,1,682.46,nonwin7.png
5,2,4,32,1,1,610.45,nonwex4.png
5,2,4,33,1,1,610.43,nonwex1.png
5,1,4,34,1,1,586.49,wordex2_8.png
5,2,4,35,1,1,874.42,nonwex2_10.png
5,1,4,36,1,1,466.41,wordex2_4.png
5,2,4,37,1,1,681.7,nonwin9.png
5,2,4,38,1,1,706.37,nonwex2_7.png
5,2,4,39,2,1,810.33,nonwin8.png
5,2,4,40,1,1,738.35,nonwex2_12.png
5,2,5,1,1,1,799.3,nonwex2_7.png
5,1,5,2,1,1,527.28,wordex2_5.png
5,2,5,3,2,1,710.97,nonwin1.png
5,2,5,4,1,1,711.24,nonwex2_12.png
5,1,5,5,1,1,455.22,wordin11.png
5,1,5,6,1,1,519.33,wordin9.png
5,2,5,7,1,1,551.19,nonwex2_3.png
5,1,5,8,1,1,414.28,wordin7.png
5,1,5,9,1,1,447.19,wordex9.png
5,1,5,10,1,1,375.17,wordin2_2.png
5,1,5,11,1,1,367.15,wordex4.png
5,2,5,12,2,1,606.87,nonwin7.png
5,2,5,13,1,1,494.91,nonwex9.png
5,2,5,14,1,1,719.11,nonwin2_5.png
5,2,5,15,1,1,719.1,nonwin12.png
5,2,5,16,1,1,615.13,nonwex1.png
5,1,5,17,1,1,494.43,wordin2_6.png
5,2,5,18,1,1,655.04,nonwex4.png
5,2,5,19,1,1,615.04,nonwex6.png
5,1,5,20,2,1,566.79,wordin2_12.png
5,1,5,21,1,1,343.02,wordex2_9.png
5,2,5,22,1,1,558.35,nonwin4.png
5,1,5,23,1,1,422.99,wordin10.png
5,2,5,24,1,1,950.33,nonwex2_2.png
5,1,5,25,1,1,654.97,wordex1.png
5,1,5,26,1,1,582.3,wordex7.png
5,1,5,27,1,1,414.29,wordin2_8.png
5,1,5,28,1,1,406.93,wordin1.png
5,1,5,29,1,1,374.89,wordex2_4.png
5,2,5,30,1,1,454.62,nonwin8.png
5,2,5,31,1,1,366.61,nonwin11.png
5,1,5,32,1,1,510.86,wordex2_8.png
5,2,5,33,1,1,662.84,nonwin2_10.png
5,2,5,34,2,1,718.85,nonwin2_1.png
5,2,5,35,2,1,934.2,nonwin9.png
5,1,5,36,1,1,702.16,wordin2_10.png
5,2,5,37,1,1,742.79,nonwex2_10.png
5,1,5,38,1,1,382.51,wordex5.png
5,2,5,39,1,1,718.77,nonwin2_9.png
5,1,5,40,1,1,526.48,wordin2.png
5,1,6,1,2,1,621.41,wordin2_12.png
5,2,6,2,2,1,829.38,nonwin8.png
5,1,6,3,1,1,493.4,wordin2_6.png
5,2,6,4,1,1,541.08,nonwex2_10.png
5,2,6,5,1,1,797.32,nonwex2_7.png
5,1,6,6,1,1,413.33,wordin7.png
5,1,6,7,1,1,437.32,wordex2_4.png
5,1,6,8,1,1,485.33,wordex7.png
5,2,6,9,1,1,788.65,nonwex9.png
5,1,6,10,1,1,397.28,wordin11.png
5,1,6,11,1,1,324.48,wordex4.png
5,2,6,12,1,1,621.24,nonwin11.png
5,2,6,13,1,1,365.23,nonwex2_3.png
5,2,6,14,1,1,381.24,nonwin2_5.png
5,1,6,15,1,1,372.63,wordin2_8.png
5,2,6,16,1,1,332.89,nonwex2_2.png
5,1,6,17,1,1,533.19,wordin2.png
5,1,6,18,1,1,428.88,wordex9.png
5,1,6,19,1,1,364.84,wordex1.png
5,2,6,20,1,1,396.49,nonwex6.png
5,1,6,21,1,1,341.12,wordin1.png
5,2,6,22,2,1,581.11,nonwin7.png
5,1,6,23,1,1,596.76,wordin2_10.png
5,2,6,24,1,1,709.09,nonwin2_1.png
5,2,6,25,1,1,813.06,nonwin2_9.png
5,1,6,26,2,1,573.08,wordex5.png
5,2,6,27,1,1,628.34,nonwin4.png
5,1,6,28,1,1,677.03,wordex2_8.png
5,1,6,29,1,1,605.01,wordin10.png
5,2,6,30,1,1,364.27,nonwin2_10.png
5,1,6,31,1,1,581,wordex2_9.png
5,1,6,32,1,1,340.34,wordin2_2.png
5,1,6,33,1,1,388.66,wordex2_5.png
5,2,6,34,1,1,628.95,nonwex1.png
5,2,6,35,2,1,764.97,nonwin9.png
5,2,6,36,1,1,708.94,nonwex2_12.png
5,2,6,37,2,1,652.93,nonwin1.png
5,2,6,38,1,1,644.93,nonwex4.png
5,1,6,39,1,1,452.87,wordin9.png
5,2,6,40,1,1,676.88,nonwin12.png
5,1,7,1,1,1,642.21,wordin2_2.png
5,1,7,2,1,1,474.19,wordex7.png
5,1,7,3,1,1,409.53,wordex5.png
5,2,7,4,1,1,738.17,nonwin12.png
5,1,7,5,2,1,586.15,wordin2_8.png
5,1,7,6,1,1,609.49,wordex4.png
5,2,7,7,1,1,569.83,nonwin2_5.png
5,1,7,8,1,1,466.07,wordex2_9.png
5,2,7,9,2,1,842.1,nonwin4.png
5,1,7,10,1,1,473.44,wordin2_12.png
5,1,7,11,1,1,785.42,wordin1.png
5,2,7,12,1,1,882.05,nonwin2_9.png
5,2,7,13,1,1,754.04,nonwin2_1.png
5,2,7,14,1,1,658.11,nonwin7.png
5,2,7,15,1,1,665.73,nonwex6.png
5,1,7,16,1,1,546.02,wordin2_10.png
5,2,7,17,1,1,657.99,nonwin11.png
5,1,7,18,1,1,626.01,wordin10.png
5,1,7,19,1,1,657.97,wordex2_8.png
5,1,7,20,1,1,433.94,wordex1.png
5,2,7,21,1,1,745.92,nonwex2_10.png
5,1,7,22,1,1,481.97,wordin11.png
5,1,7,23,1,1,473.61,wordex2_4.png
5,1,7,24,1,1,553.93,wordin9.png
5,2,7,25,1,1,993.24,nonwex9.png
5,2,7,26,1,1,689.9,nonwex2_2.png
5,1,7,27,1,1,457.86,wordex9.png
5,2,7,28,1,1,609.85,nonwex2_12.png
5,1,7,29,1,1,529.83,wordin2_6.png
5,2,7,30,2,1,697.9,nonwin1.png
5,2,7,31,1,1,721.01,nonwex4.png
5,2,7,32,2,1,1001.75,nonwin9.png
5,1,7,33,1,1,537.78,wordex2_5.png
5,2,7,34,1,1,545.79,nonwex2_3.png
5,2,7,35,1,1,545.12,nonwex1.png
5,1,7,36,1,1,497.11,wordin7.png
5,1,7,37,1,1,729.07,wordin2.png
5,2,7,38,2,1,673.71,nonwex2_7.png
5,2,7,39,2,1,657.7,nonwin8.png
5,2,7,40,1,1,633.67,nonwin2_10.png
5,2,8,1,1,1,790.24,nonwex9.png
5,1,8,2,1,1,670.36,wordex9.png
5,2,8,3,1,1,653.56,nonwex2_7.png
5,1,8,4,1,1,462.2,wordex4.png
5,2,8,5,1,1,478.18,nonwin11.png
5,1,8,6,1,1,518.15,wordin2_10.png
5,2,8,7,1,1,614.17,nonwin1.png
5,1,8,8,1,1,462.12,wordin2_6.png
5,2,8,9,1,1,374.13,nonwin8.png
5,1,8,10,1,1,446.09,wordin2.png
5,1,8,11,1,1,486.09,wordin2_2.png
5,2,8,12,1,1,629.78,nonwin9.png
5,2,8,13,0,0,0,nonwin2_5.png
5,1,8,14,1,1,477.41,wordex2_9.png
5,2,8,15,1,1,566.02,nonwex2_3.png
5,2,8,16,1,1,494.01,nonwin2_1.png
5,1,8,17,2,1,581.23,wordex5.png
5,2,8,18,1,1,678,nonwex2_2.png
5,1,8,19,1,1,590.03,wordex2_8.png
5,2,8,20,1,1,614,nonwin4.png
5,1,8,21,1,1,573.68,wordex7.png
5,2,8,22,1,1,637.65,nonwin2_10.png
5,1,8,23,1,1,501.29,wordin9.png
5,1,8,24,1,1,517.92,wordin2_8.png
5,2,8,25,1,1,869.63,nonwex2_10.png
5,2,8,26,2,1,574.04,nonwin7.png
5,2,8,27,1,1,549.89,nonwin12.png
5,2,8,28,1,1,493.85,nonwex2_12.png
5,1,8,29,1,1,397.85,wordin11.png
5,2,8,30,1,1,333.87,nonwex6.png
5,1,8,31,1,1,460.89,wordex2_5.png
5,2,8,32,1,1,485.8,nonwin2_9.png
5,1,8,33,1,1,405.15,wordex1.png
5,2,8,34,1,1,469.8,nonwex4.png
5,1,8,35,1,1,429.76,wordin1.png
5,1,8,36,1,1,517.67,wordin10.png
5,1,8,37,1,1,405.75,wordex2_4.png
5,1,8,38,1,1,517.71,wordin7.png
5,1,8,39,2,1,541.44,wordin2_12.png
5,2,8,40,1,1,269.69,nonwex1.png
6,1,1,1,1,1,1039.41,wordex2_9.png
6,2,1,2,1,1,1015.43,nonwin10.png
6,2,1,3,2,1,823.39,nonwin9.png
6,1,1,4,2,1,983.39,wordex11.png
6,2,1,5,2,1,559.36,nonwex2_1.png
6,2,1,6,1,1,718.13,nonwin2_6.png
6,1,1,7,2,1,759.38,wordex12.png
6,1,1,8,1,1,519.33,wordex3.png
6,1,1,9,1,1,503.33,wordin8.png
6,2,1,10,1,1,271.31,nonwin2.png
6,2,1,11,2,1,175.3,nonwex2_2.png
6,1,1,12,2,1,175.28,wordex2_1.png
6,1,1,13,2,1,167.24,wordin2_8.png
6,1,1,14,1,1,215.24,wordin2_9.png
6,1,1,15,2,1,367.24,wordin3.png
6,2,1,16,2,1,271.23,nonwex3.png
6,2,1,17,2,1,279.27,nonwin5.png
6,2,1,18,1,1,175.18,nonwin2_11.png
6,2,1,19,1,1,55.18,nonwex2_10.png
6,1,1,20,1,1,127.23,wordin2_11.png
6,1,1,21,1,1,79.08,wordin12.png
6,1,1,22,2,1,71.2,wordex2_10.png
6,1,1,23,2,1,383.13,wordex2.png
6,2,1,24,2,1,199.11,nonwex2_11.png
6,1,1,25,2,1,63.11,wordin2.png
6,2,1,26,2,1,229.76,nonwin2_5.png
6,1,1,27,1,1,239.06,wordex2_2.png
6,1,1,28,1,1,165.79,wordex4.png
6,2,1,29,1,1,207.05,nonwex2_4.png
6,2,1,30,1,1,207.01,nonwex2_12.png
6,2,1,31,2,1,141.8,nonwin1.png
6,2,1,32,2,1,117.75,nonwex2.png
6,2,1,33,2,1,222.98,nonwex2_9.png
6,1,1,34,2,1,214.96,wordex8.png
6,2,1,35,2,1,317.72,nonwex2_5.png
6,1,1,36,2,1,270.94,wordin2_2.png
6,1,1,37,2,1,214.94,wordin2_10.png
6,2,1,38,1,1,86.92,nonwin3.png
6,2,1,39,1,1,166.79,nonwex8.png
6,1,1,40,1,1,165.58,wordin2_4.png
6,2,2,1,2,1,1044.84,nonwex2_12.png
6,1,2,2,2,1,299.57,wordin3.png
6,2,2,3,2,1,516.81,nonwex2_4.png
6,2,2,4,2,1,644.78,nonwin9.png
6,1,2,5,1,1,451.63,wordin2_8.png
6,1,2,6,2,1,259.52,wordex8.png
6,1,2,7,2,1,492.86,wordex2_1.png
6,1,2,8,1,1,236.79,wordin2_9.png
6,1,2,9,1,1,324.72,wordex3.png
6,1,2,10,1,1,340.76,wordin12.png
6,1,2,11,2,1,308.7,wordex4.png
6,2,2,12,1,1,252.68,nonwin2_5.png
6,1,2,13,1,1,252.72,wordex2.png
6,1,2,14,2,1,268.6,wordex2_10.png
6,2,2,15,1,1,276.62,nonwin2.png
6,2,2,16,1,1,220.63,nonwin3.png
6,1,2,17,2,1,356.62,wordin8.png
6,2,2,18,2,1,252.59,nonwex2_1.png
6,1,2,19,1,1,212.59,wordin2_10.png
6,2,2,20,1,1,212.57,nonwin10.png
6,2,2,21,2,1,276.56,nonwex2_9.png
6,2,2,22,1,1,212.56,nonwex2_11.png
6,2,2,23,1,1,187.29,nonwin2_11.png
6,2,2,24,2,1,220.52,nonwex2_2.png
6,1,2,25,2,1,244.51,wordex2_2.png
6,2,2,26,1,1,220.51,nonwex2_5.png
6,1,2,27,1,1,196.47,wordin2_11.png
6,1,2,28,1,1,204.45,wordin2_2.png
6,2,2,29,2,1,260.45,nonwex3.png
6,2,2,30,2,1,244.44,nonwin5.png
6,2,2,31,2,1,452.44,nonwex2.png
6,1,2,32,2,1,691.19,wordin2.png
6,2,2,33,1,1,444.41,nonwin2_6.png
6,2,2,34,2,1,412.39,nonwex8.png
6,1,2,35,2,1,404.37,wordex11.png
6,2,2,36,1,1,396.36,nonwin1.png
6,1,2,37,2,1,284.35,wordin2_4.png
6,2,2,38,2,1,348.34,nonwex2_10.png
6,1,2,39,2,1,436.33,wordex2_9.png
6,1,2,40,1,1,268.3,wordex12.png
6,1,3,1,1,1,704.33,wordin2_4.png
6,1,3,2,1,1,608.31,wordin2_2.png
6,1,3,3,1,1,608.24,wordex3.png
6,2,3,4,2,1,543.07,nonwex2_11.png
6,1,3,5,2,1,616.27,wordex2_2.png
6,2,3,6,2,1,591.03,nonwin9.png
6,2,3,7,1,1,576.23,nonwin2.png
6,2,3,8,2,1,296.23,nonwex3.png
6,2,3,9,2,1,416.19,nonwin2_5.png
6,2,3,10,2,1,414.99,nonwin1.png
6,1,3,11,1,1,312.17,wordin2_11.png
6,1,3,12,1,1,248.17,wordex4.png
6,2,3,13,1,1,376.16,nonwex2_4.png
6,2,3,14,2,1,424.13,nonwin10.png
6,2,3,15,2,1,390.87,nonwin2_11.png
6,1,3,16,2,1,256.1,wordin12.png
6,1,3,17,2,1,408.1,wordex2_9.png
6,1,3,18,2,1,432.07,wordex8.png
6,1,3,19,1,1,312.08,wordin2.png
6,1,3,20,1,1,320.06,wordin2_10.png
6,1,3,21,1,1,464.02,wordin3.png
6,1,3,22,2,1,286.81,wordex11.png
6,1,3,23,1,1,568,wordex12.png
6,2,3,24,2,1,496.01,nonwex2.png
6,2,3,25,2,1,519.99,nonwex2_5.png
6,2,3,26,2,1,431.97,nonwex2_9.png
6,2,3,27,2,1,655.96,nonwex2_10.png
6,1,3,28,1,1,719.85,wordex2_1.png
6,2,3,29,2,1,575.93,nonwex2_1.png
6,1,3,30,2,1,462.74,wordex2.png
6,2,3,31,1,1,527.91,nonwin5.png
6,2,3,32,1,1,535.88,nonwin2_6.png
6,2,3,33,2,1,407.88,nonwex8.png
6,2,3,34,2,1,239.86,nonwex2_12.png
6,1,3,35,2,1,335.85,wordin8.png
6,2,3,36,2,1,343.85,nonwin3.png
6,1,3,37,2,1,367.8,wordex2_10.png
6,2,3,38,1,1,391.85,nonwex2_2.png
6,1,3,39,1,1,414.57,wordin2_9.png
6,1,3,40,2,1,263.79,wordin2_8.png
6,2,4,1,2,1,554.14,nonwex2_11.png
6,1,4,2,1,1,578.14,wordex3.png
6,2,4,3,2,1,618.15,nonwin2_6.png
6,2,4,4,2,1,554.05,nonwin3.png
6,2,4,5,2,1,466.03,nonwex2.png
6,1,4,6,1,1,570.02,wordex2.png
6,2,4,7,2,1,386.01,nonwin9.png
6,2,4,8,2,1,281.99,nonwin2_5.png
6,2,4,9,2,1,265.98,nonwin1.png
6,1,4,10,2,1,385.94,wordex11.png
6,1,4,11,2,1,489.86,wordin2_10.png
6,1,4,12,1,1,281.94,wordex2_1.png
6,1,4,13,2,1,273.92,wordex4.png
6,1,4,14,2,1,369.96,wordin8.png
6,1,4,15,1,1,265.91,wordex2_2.png
6,1,4,16,1,1,441.89,wordin3.png
6,2,4,17,2,1,289.86,nonwin10.png
6,2,4,18,2,1,297.86,nonwin5.png
6,1,4,19,2,1,241.84,wordex8.png
6,1,4,20,2,1,409.83,wordex2_10.png
6,1,4,21,2,1,777.82,wordex12.png
6,1,4,22,2,1,361.8,wordin2_8.png
6,2,4,23,2,1,345.8,nonwex8.png
6,2,4,24,2,1,433.79,nonwex2_5.png
6,2,4,25,1,1,497.8,nonwex2_4.png
6,1,4,26,1,1,320.55,wordin2.png
6,1,4,27,2,1,497.74,wordin2_9.png
6,1,4,28,2,1,697.72,wordex2_9.png
6,1,4,29,2,1,641.72,wordin2_4.png
6,2,4,30,2,1,585.71,nonwex2_1.png
6,2,4,31,2,1,609.69,nonwex2_2.png
6,1,4,32,1,1,728.46,wordin2_11.png
6,2,4,33,2,1,616.43,nonwin2_11.png
6,2,4,34,2,1,673.65,nonwex3.png
6,2,4,35,2,1,665.64,nonwex2_10.png
6,1,4,36,1,1,601.6,wordin2_2.png
6,2,4,37,2,1,721.6,nonwex2_12.png
6,2,4,38,2,1,649.58,nonwex2_9.png
6,1,4,39,1,1,657.59,wordin12.png
6,2,4,40,2,1,609.58,nonwin2.png
6,1,5,1,1,1,683.88,wordin12.png
6,2,5,2,2,1,547.84,nonwex2_1.png
6,2,5,3,2,1,523.83,nonwin5.png
6,2,5,4,2,1,507.82,nonwex2_4.png
6,1,5,5,1,1,435.83,wordin2_4.png
6,1,5,6,1,1,403.82,wordin2.png
6,1,5,7,1,1,459.79,wordex2_1.png
6,2,5,8,2,1,499.73,nonwex2_11.png
6,1,5,9,1,1,515.74,wordin8.png
6,1,5,10,1,1,467.74,wordex2_10.png
6,2,5,11,2,1,459.7,nonwin9.png
6,1,5,12,1,1,418.5,wordex12.png
6,2,5,13,1,1,667.72,nonwin10.png
6,2,5,14,2,1,539.68,nonwin2_11.png
6,2,5,15,2,1,579.66,nonwin3.png
6,2,5,16,2,1,491.6,nonwex2_2.png
6,1,5,17,1,1,483.64,wordin2_10.png
6,1,5,18,1,1,595.63,wordin2_8.png
6,2,5,19,2,1,515.63,nonwex2_10.png
6,1,5,20,1,1,467.49,wordin2_11.png
6,1,5,21,1,1,403.6,wordex4.png
6,1,5,22,1,1,419.55,wordex8.png
6,2,5,23,2,1,387.56,nonwex2_5.png
6,2,5,24,2,1,363.51,nonwin2_6.png
6,1,5,25,2,1,307.53,wordex2.png
6,2,5,26,2,1,515.53,nonwin2.png
6,2,5,27,2,1,539.52,nonwin1.png
6,1,5,28,1,1,411.51,wordin2_9.png
6,2,5,29,1,1,483.48,nonwex2_12.png
6,1,5,30,1,1,643.46,wordex11.png
6,2,5,31,2,1,475.44,nonwin2_5.png
6,1,5,32,1,1,531.45,wordex2_9.png
6,1,5,33,1,1,467.4,wordex3.png
6,1,5,34,1,1,395.42,wordin3.png
6,2,5,35,2,1,506.19,nonwex3.png
6,2,5,36,2,1,555.39,nonwex8.png
6,1,5,37,1,1,483.4,wordin2_2.png
6,1,5,38,1,1,499.36,wordex2_2.png
6,2,5,39,2,1,395.36,nonwex2.png
6,2,5,40,2,1,587.34,nonwex2_9.png
6,2,6,1,2,1,510.26,nonwin3.png
6,2,6,2,2,1,494.25,nonwex2_11.png
6,2,6,3,2,1,470.22,nonwex2_1.png
6,1,6,4,1,1,494.22,wordex2_1.png
6,2,6,5,2,1,340.97,nonwex2.png
6,1,6,6,1,1,414.2,wordex3.png
6,1,6,7,2,1,382.18,wordex2_9.png
6,1,6,8,1,1,558.15,wordin12.png
6,2,6,9,2,1,414.15,nonwex3.png
6,1,6,10,1,1,494.12,wordin2_10.png
6,2,6,11,2,1,510.12,nonwin2.png
6,1,6,12,1,1,454.12,wordex12.png
6,1,6,13,1,1,534.13,wordin2_8.png
6,2,6,14,2,1,486.07,nonwin5.png
6,2,6,15,2,1,430.08,nonwin2_5.png
6,2,6,16,2,1,326.07,nonwex2_4.png
6,2,6,17,2,1,350.04,nonwex2_10.png
6,2,6,18,2,1,286.03,nonwex2_2.png
6,1,6,19,2,1,262.01,wordin2.png
6,2,6,20,2,1,446.01,nonwex2_12.png
6,2,6,21,2,1,445.98,nonwex2_5.png
6,2,6,22,2,1,509.98,nonwin10.png
6,2,6,23,2,1,445.92,nonwex2_9.png
6,1,6,24,1,1,453.9,wordin3.png
6,1,6,25,2,1,477.95,wordin2_2.png
6,2,6,26,2,1,621.91,nonwex8.png
6,1,6,27,1,1,469.91,wordin2_11.png
6,1,6,28,1,1,413.89,wordex2_2.png
6,2,6,29,2,1,549.86,nonwin2_6.png
6,1,6,30,1,1,493.87,wordin2_4.png
6,1,6,31,1,1,501.86,wordex2.png
6,2,6,32,2,1,461.84,nonwin9.png
6,1,6,33,1,1,501.83,wordin2_9.png
6,2,6,34,2,1,517.83,nonwin1.png
6,1,6,35,1,1,532.58,wordin8.png
6,1,6,36,1,1,653.8,wordex4.png
6,1,6,37,1,1,605.78,wordex8.png
6,2,6,38,2,1,477.75,nonwin2_11.png
6,1,6,39,1,1,549.75,wordex11.png
6,1,6,40,1,1,381.72,wordex2_10.png
6,2,7,1,2,1,498.87,nonwin2_5.png
6,2,7,2,2,1,578.81,nonwin3.png
6,1,7,3,1,1,434.86,wordin2_11.png
6,2,7,4,2,1,426.79,nonwex2_10.png
6,1,7,5,1,1,538.76,wordin12.png
6,2,7,6,2,1,410.76,nonwex2_5.png
6,1,7,7,1,1,409.51,wordex2_2.png
6,2,7,8,2,1,402.73,nonwex2_1.png
6,1,7,9,1,1,385.55,wordex2_9.png
6,1,7,10,1,1,370.7,wordex2_1.png
6,1,7,11,1,1,354.7,wordin2_9.png
6,1,7,12,1,1,450.7,wordin3.png
6,1,7,13,1,1,434.68,wordin2_10.png
6,2,7,14,2,1,562.63,nonwin2.png
6,1,7,15,1,1,450.65,wordex12.png
6,2,7,16,2,1,490.51,nonwex2_12.png
6,1,7,17,1,1,450.63,wordex4.png
6,2,7,18,2,1,458.61,nonwex3.png
6,2,7,19,2,1,529.34,nonwin2_6.png
6,1,7,20,1,1,505.98,wordex8.png
6,1,7,21,1,1,434.56,wordin2_8.png
6,2,7,22,2,1,410.55,nonwex2_11.png
6,2,7,23,2,1,409.31,nonwex2.png
6,1,7,24,1,1,394.52,wordin2_2.png
6,2,7,25,2,1,562.51,nonwex2_9.png
6,2,7,26,2,1,586.49,nonwex2_2.png
6,1,7,27,1,1,490.36,wordin2.png
6,2,7,28,2,1,538.45,nonwex8.png
6,1,7,29,1,1,426.46,wordex3.png
6,2,7,30,2,1,426.44,nonwin9.png
6,2,7,31,2,1,538.41,nonwex2_4.png
6,2,7,32,2,1,425.19,nonwin1.png
6,1,7,33,1,1,490.3,wordex2_10.png
6,1,7,34,1,1,418.36,wordex11.png
6,1,7,35,1,1,482.42,wordin2_4.png
6,1,7,36,1,1,418.37,wordex2.png
6,2,7,37,2,1,482.35,nonwin5.png
6,2,7,38,2,1,466.33,nonwin2_11.png
6,2,7,39,2,1,394.31,nonwin10.png
6,1,7,40,1,1,530.28,wordin8.png
6,2,8,1,2,1,502.7,nonwin5.png
6,1,8,2,1,1,518.69,wordex2.png
6,1,8,3,1,1,469.46,wordin2_9.png
6,1,8,4,1,1,390.67,wordin2_8.png
6,2,8,5,2,1,446.65,nonwex8.png
6,2,8,6,2,1,510.63,nonwex2_4.png
6,2,8,7,2,1,462.61,nonwex2_2.png
6,1,8,8,1,1,406.6,wordex8.png
6,1,8,9,1,1,406.6,wordex2_2.png
6,2,8,10,2,1,486.55,nonwin2_6.png
6,1,8,11,1,1,446.54,wordex4.png
6,2,8,12,2,1,478.59,nonwin2.png
6,2,8,13,2,1,430.55,nonwin3.png
6,1,8,14,1,1,421.28,wordex2_1.png
6,1,8,15,1,1,462.51,wordin2_11.png
6,2,8,16,2,1,494.51,nonwin1.png
6,2,8,17,2,1,422.49,nonwex2_9.png
6,2,8,18,0,0,0,nonwex2_10.png
6,2,8,19,2,1,454.45,nonwin2_11.png
6,1,8,20,1,1,486.44,wordin8.png
6,2,8,21,2,1,438.43,nonwin2_5.png
6,1,8,22,1,1,493.19,wordex2_10.png
6,1,8,23,1,1,421.09,wordex12.png
6,1,8,24,1,1,438.38,wordex11.png
6,2,8,25,2,1,478.38,nonwex2_1.png
6,2,8,26,2,1,374.36,nonwex2_12.png
6,2,8,27,2,1,414.36,nonwex3.png
6,1,8,28,2,1,174.34,wordex3.png
6,2,8,29,2,1,478.33,nonwex2.png
6,1,8,30,1,1,454.32,wordin2_4.png
6,1,8,31,1,1,438.3,wordin2_10.png
6,1,8,32,1,1,454.28,wordin2_2.png
6,1,8,33,1,1,358.28,wordin2.png
6,2,8,34,1,1,326.24,nonwin10.png
6,1,8,35,1,1,470.24,wordex2_9.png
6,2,8,36,2,1,510.2,nonwin9.png
6,2,8,37,2,1,558.21,nonwex2_11.png
6,1,8,38,2,1,310.16,wordin12.png
6,2,8,39,2,1,470.19,nonwex2_5.png
6,1,8,40,1,1,462.18,wordin3.png
7,1,1,1,1,1,673.68,wordin2_7.png
7,2,1,2,2,1,665.68,nonwin10.png
7,2,1,3,2,1,673.65,nonwex2.png
7,2,1,4,2,1,665.64,nonwex5.png
7,1,1,5,1,1,545.62,wordin3.png
7,2,1,6,1,1,848.83,nonwin5.png
7,1,1,7,1,1,633.55,wordin9.png
7,1,1,8,1,1,577.57,wordex2_7.png
7,2,1,9,2,1,505.58,nonwin2_7.png
7,1,1,10,2,1,737.53,wordin10.png
7,1,1,11,1,1,449.55,wordex2_3.png
7,2,1,12,2,1,529.53,nonwex2_2.png
7,1,1,13,1,1,529.52,wordin2_6.png
7,2,1,14,1,1,489.54,nonwin11.png
7,2,1,15,2,1,521.52,nonwin2_2.png
7,2,1,16,2,1,665.6,nonwex2_6.png
7,1,1,17,1,1,617.46,wordin2_2.png
7,2,1,18,1,1,665.45,nonwex2_10.png
7,1,1,19,1,1,889.45,wordex6.png
7,1,1,20,1,1,817.42,wordex2_1.png
7,1,1,21,1,1,609.42,wordex11.png
7,1,1,22,1,1,777.4,wordex2_10.png
7,2,1,23,2,1,593.47,nonwex6.png
7,2,1,24,2,1,681.37,nonwin7.png
7,2,1,25,2,1,617.36,nonwin9.png
7,1,1,26,1,1,720.54,wordin2_11.png
7,1,1,27,1,1,713.31,wordex10.png
7,2,1,28,2,1,592.67,nonwex9.png
7,2,1,29,2,1,664.65,nonwex2_12.png
7,2,1,30,1,1,656.63,nonwin2_3.png
7,1,1,31,1,1,529.3,wordex12.png
7,1,1,32,1,1,728.61,wordin2_3.png
7,1,1,33,1,1,576.59,wordex1.png
7,2,1,34,2,1,640.59,nonwex2_4.png
7,2,1,35,2,1,729.2,nonwex2_3.png
7,1,1,36,1,1,496.91,wordin2_4.png
7,2,1,37,1,1,568.53,nonwin2_11.png
7,2,1,38,2,1,648.39,nonwin2_8.png
7,1,1,39,1,1,561.18,wordin4.png
7,1,1,40,1,1,521.14,wordin8.png
7,1,2,1,0,0,0,wordex2_1.png
7,2,2,2,0,0,0,nonwin7.png
7,1,2,3,0,0,0,wordin2_2.png
7,1,2,4,0,0,0,wordex1.png
7,2,2,5,0,0,0,nonwin9.png
7,2,2,6,0,0,0,nonwin2_8.png
7,2,2,7,0,0,0,nonwin2_7.png
7,1,2,8,0,0,0,wordex12.png
7,2,2,9,0,0,0,nonwin2_2.png
7,1,2,10,0,0,0,wordin4.png
7,1,2,11,0,0,0,wordin2_11.png
7,2,2,12,0,0,0,nonwex2_6.png
7,2,2,13,0,0,0,nonwin2_3.png
7,2,2,14,0,0,0,nonwex2_10.png
7,2,2,15,0,0,0,nonwex2.png
7,2,2,16,0,0,0,nonwex6.png
7,1,2,17,0,0,0,wordex6.png
7,2,2,18,0,0,0,nonwin5.png
7,1,2,19,0,0,0,wordex2_3.png
7,1,2,20,1,1,653.84,wordin3.png
7,1,2,21,1,1,645.82,wordex10.png
7,2,2,22,2,1,565.83,nonwex2_4.png
7,1,2,23,1,1,669.81,wordin9.png
7,2,2,24,2,1,525.79,nonwin2_11.png
7,2,2,25,2,1,733.78,nonwex9.png
7,1,2,26,1,1,541.78,wordin2_3.png
7,1,2,27,1,1,461.75,wordex11.png
7,2,2,28,2,1,461.74,nonwin10.png
7,1,2,29,1,1,461.81,wordin2_6.png
7,2,2,30,1,1,765.73,nonwex5.png
7,2,2,31,2,1,541.4,nonwex2_12.png
7,2,2,32,2,1,485.84,nonwex2_3.png
7,1,2,33,1,1,461.43,wordin8.png
7,1,2,34,1,1,445.38,wordin2_7.png
7,2,2,35,1,1,645.62,nonwin11.png
7,1,2,36,1,1,437.01,wordex2_10.png
7,1,2,37,1,1,493.62,wordin2_4.png
7,1,2,38,1,1,469.6,wordin10.png
7,1,2,39,1,1,485.59,wordex2_7.png
7,2,2,40,2,1,509.57,nonwex2_2.png
7,1,3,1,1,1,698.84,wordin3.png
7,2,3,2,1,1,794.55,nonwex2_3.png
7,1,3,3,1,1,610.81,wordin2_11.png
7,2,3,4,2,1,858.74,nonwex6.png
7,1,3,5,1,1,578.78,wordex6.png
7,2,3,6,1,1,746.76,nonwex2_6.png
7,2,3,7,1,1,850.75,nonwex5.png
7,1,3,8,1,1,986.34,wordex12.png
7,2,3,9,2,1,890.06,nonwin2_8.png
7,1,3,10,1,1,762.7,wordin2_7.png
7,1,3,11,1,1,698.68,wordex2_3.png
7,1,3,12,1,1,666.68,wordin4.png
7,1,3,13,1,1,1002.61,wordex2_1.png
7,1,3,14,1,1,650.3,wordex1.png
7,2,3,15,2,1,826.35,nonwex2_2.png
7,1,3,16,1,1,722.34,wordex2_7.png
7,2,3,17,2,1,778.78,nonwin5.png
7,1,3,18,1,1,697.8,wordex11.png
7,2,3,19,1,1,658.57,nonwin2_3.png
7,2,3,20,2,1,714.56,nonwin2_2.png
7,1,3,21,1,1,562.54,wordex10.png
7,2,3,22,2,1,754.54,nonwex9.png
7,1,3,23,1,1,586.3,wordin2_2.png
7,1,3,24,1,1,514.52,wordin2_6.png
7,2,3,25,2,1,642.49,nonwin2_11.png
7,1,3,26,1,1,586.22,wordin9.png
7,2,3,27,1,1,690.46,nonwin7.png
7,1,3,28,1,1,586.48,wordin2_4.png
7,1,3,29,2,1,554.17,wordin10.png
7,2,3,30,2,1,954.42,nonwin11.png
7,1,3,31,1,1,522.41,wordex2_10.png
7,2,3,32,2,1,586.41,nonwin2_7.png
7,1,3,33,1,1,425.77,wordin2_3.png
7,1,3,34,1,1,418.1,wordin8.png
7,2,3,35,1,1,442.35,nonwin10.png
7,2,3,36,2,1,578.38,nonwex2_4.png
7,2,3,37,2,1,586.32,nonwin9.png
7,2,3,38,1,1,513.49,nonwex2_10.png
7,2,3,39,1,1,546.02,nonwex2.png
7,2,3,40,1,1,642.29,nonwex2_12.png
7,1,4,1,1,1,545.77,wordin2_3.png
7,1,4,2,1,1,585.47,wordex2_7.png
7,1,4,3,1,1,529.73,wordin2_4.png
7,1,4,4,1,1,785.72,wordex10.png
7,2,4,5,2,1,873.72,nonwex9.png
7,1,4,6,1,1,609.75,wordex12.png
7,2,4,7,1,1,729.04,nonwin5.png
7,2,4,8,2,1,665.05,nonwin11.png
7,2,4,9,2,1,737.66,nonwex2_2.png
7,2,4,10,1,1,577.65,nonwex2_10.png
7,1,4,11,1,1,649.66,wordin2_7.png
7,2,4,12,2,1,609.62,nonwin9.png
7,1,4,13,1,1,633.61,wordex2_3.png
7,1,4,14,1,1,505.31,wordin4.png
7,1,4,15,1,1,537.58,wordex2_1.png
7,1,4,16,1,1,512.93,wordex2_10.png
7,2,4,17,1,1,745.55,nonwex5.png
7,1,4,18,1,1,617.57,wordin9.png
7,1,4,19,1,1,521.53,wordex11.png
7,1,4,20,1,1,561.51,wordex1.png
7,2,4,21,2,1,521.5,nonwex2_4.png
7,1,4,22,1,1,497.49,wordin2_6.png
7,2,4,23,2,1,809.48,nonwex6.png
7,2,4,24,1,1,481.47,nonwin7.png
7,1,4,25,1,1,521.47,wordin3.png
7,1,4,26,1,1,489.45,wordin2_2.png
7,2,4,27,1,1,601.48,nonwin2_3.png
7,2,4,28,2,1,848.77,nonwex2.png
7,1,4,29,1,1,480.74,wordin2_11.png
7,1,4,30,1,1,1089.48,wordin10.png
7,1,4,31,1,1,537.08,wordin8.png
7,2,4,32,1,1,392.71,nonwin2_2.png
7,2,4,33,2,1,753.11,nonwex2_6.png
7,2,4,34,2,1,841.33,nonwin2_8.png
7,2,4,35,2,1,697.05,nonwex2_3.png
7,2,4,36,2,1,657.31,nonwin2_7.png
7,2,4,37,1,1,553.34,nonwex2_12.png
7,2,4,38,2,1,529.38,nonwin10.png
7,2,4,39,2,1,577.39,nonwin2_11.png
7,1,4,40,1,1,408.96,wordex6.png
7,2,5,1,2,1,901.88,nonwex6.png
7,2,5,2,2,1,589.87,nonwex2_2.png
7,1,5,3,1,1,445.84,wordex2_3.png
7,1,5,4,1,1,421.53,wordin4.png
7,1,5,5,2,1,709.83,wordin10.png
7,2,5,6,2,1,893.81,nonwin7.png
7,1,5,7,1,1,461.78,wordex1.png
7,1,5,8,1,1,397.56,wordin2_4.png
7,2,5,9,2,1,485.76,nonwin9.png
7,2,5,10,2,1,517.75,nonwin10.png
7,2,5,11,2,1,749.73,nonwex2_4.png
7,1,5,12,1,1,453.07,wordex11.png
7,1,5,13,1,1,397.75,wordex10.png
7,1,5,14,1,1,477.69,wordin2_6.png
7,2,5,15,2,1,565.69,nonwin11.png
7,2,5,16,2,1,845.68,nonwin2_7.png
7,1,5,17,2,1,485.38,wordin2_11.png
7,1,5,18,1,1,517.6,wordin3.png
7,1,5,19,1,1,517.58,wordex6.png
7,2,5,20,1,1,661.61,nonwin2_8.png
7,2,5,21,2,1,781.59,nonwex2_3.png
7,1,5,22,1,1,613.6,wordex2_7.png
7,2,5,23,1,1,621.56,nonwex5.png
7,2,5,24,1,1,949.55,nonwin5.png
7,2,5,25,2,1,765.26,nonwex2.png
7,1,5,26,1,1,605.55,wordin2_7.png
7,1,5,27,2,1,589.53,wordin2_3.png
7,1,5,28,1,1,469.53,wordex2_1.png
7,1,5,29,1,1,445.49,wordin8.png
7,2,5,30,2,1,789.48,nonwex2_6.png
7,1,5,31,1,1,613.46,wordin2_2.png
7,1,5,32,1,1,565.45,wordex12.png
7,2,5,33,1,1,677.56,nonwex2_12.png
7,2,5,34,2,1,573.42,nonwin2_2.png
7,1,5,35,1,1,509.42,wordex2_10.png
7,2,5,36,2,1,605.11,nonwin2_11.png
7,2,5,37,1,1,605.38,nonwin2_3.png
7,2,5,38,1,1,669.36,nonwex9.png
7,1,5,39,1,1,613.09,wordin9.png
7,2,5,40,1,1,748.71,nonwex2_10.png
7,1,6,1,1,1,448.96,wordex1.png
7,1,6,2,1,1,856.67,wordex6.png
7,1,6,3,1,1,960.91,wordex12.png
7,1,6,4,1,1,896.91,wordex11.png
7,2,6,5,1,1,936.27,nonwex2_12.png
7,2,6,6,2,1,608.24,nonwex2_4.png
7,2,6,7,2,1,712.87,nonwex2_2.png
7,2,6,8,2,1,608.21,nonwin10.png
7,2,6,9,1,1,696.23,nonwex6.png
7,2,6,10,2,1,512.89,nonwin9.png
7,1,6,11,2,1,512.53,wordin2_11.png
7,1,6,12,1,1,640.79,wordex2_7.png
7,1,6,13,1,1,608.82,wordex10.png
7,2,6,14,2,1,496.76,nonwin2_2.png
7,1,6,15,1,1,504.76,wordex2_3.png
7,2,6,16,1,1,472.74,nonwin2_8.png
7,1,6,17,1,1,624.73,wordin2_7.png
7,1,6,18,1,1,752.1,wordin2_3.png
7,1,6,19,1,1,552.7,wordex2_10.png
7,2,6,20,1,1,632.69,nonwex5.png
7,2,6,21,1,1,688.67,nonwex2.png
7,2,6,22,1,1,512.38,nonwex2_10.png
7,1,6,23,1,1,728.65,wordin3.png
7,1,6,24,1,1,712.05,wordin2_6.png
7,2,6,25,2,1,568.64,nonwex2_3.png
7,1,6,26,1,1,800.65,wordin10.png
7,1,6,27,1,1,728.46,wordin4.png
7,1,6,28,1,1,568.58,wordin2_4.png
7,2,6,29,1,1,632.46,nonwex2_6.png
7,1,6,30,1,1,728.56,wordin2_2.png
7,2,6,31,2,1,735.88,nonwex9.png
7,2,6,32,2,1,776.54,nonwin5.png
7,2,6,33,1,1,464.54,nonwin2_3.png
7,1,6,34,1,1,456.52,wordin9.png
7,1,6,35,1,1,527.86,wordin8.png
7,2,6,36,2,1,872.36,nonwin7.png
7,2,6,37,2,1,839.6,nonwin2_11.png
7,2,6,38,2,1,728.5,nonwin2_7.png
7,2,6,39,2,1,808.43,nonwin11.png
7,1,6,40,1,1,480.15,wordex2_1.png
7,1,7,1,1,1,462.86,wordin2_4.png
7,1,7,2,1,1,566.79,wordex10.png
7,2,7,3,2,1,670.77,nonwin11.png
7,1,7,4,1,1,750.77,wordin3.png
7,1,7,5,1,1,606.75,wordex2_7.png
7,1,7,6,1,1,694.74,wordex2_10.png
7,2,7,7,1,1,918.72,nonwex5.png
7,1,7,8,1,1,718.73,wordex12.png
7,2,7,9,2,1,670.72,nonwin10.png
7,2,7,10,2,1,734.6,nonwin2_7.png
7,2,7,11,1,1,742.04,nonwin2_8.png
7,2,7,12,1,1,1166.66,nonwex9.png
7,2,7,13,1,1,478.66,nonwex2_6.png
7,1,7,14,1,1,390.64,wordin8.png
7,2,7,15,1,1,533.97,nonwin5.png
7,1,7,16,2,1,661.97,wordin10.png
7,2,7,17,2,1,749.96,nonwex2_3.png
7,1,7,18,1,1,614.58,wordin2_6.png
7,2,7,19,2,1,982.56,nonwex6.png
7,2,7,20,2,1,542.26,nonwin2_11.png
7,1,7,21,1,1,486.53,wordin2_7.png
7,1,7,22,1,1,558.54,wordex6.png
7,2,7,23,2,1,526.26,nonwex2_2.png
7,1,7,24,1,1,462.5,wordex2_1.png
7,2,7,25,2,1,518.24,nonwex2_4.png
7,1,7,26,2,1,582.47,wordin9.png
7,2,7,27,1,1,630.45,nonwex2_12.png
7,2,7,28,1,1,597.81,nonwex2_10.png
7,2,7,29,2,1,510.15,nonwin7.png
7,2,7,30,2,1,494.43,nonwin9.png
7,2,7,31,1,1,614.41,nonwex2.png
7,1,7,32,1,1,502.07,wordin4.png
7,1,7,33,1,1,510.11,wordin2_2.png
7,1,7,34,1,1,670.38,wordin2_11.png
7,1,7,35,1,1,518.37,wordex1.png
7,2,7,36,1,1,558.34,nonwin2_3.png
7,2,7,37,1,1,830.33,nonwin2_2.png
7,1,7,38,1,1,534.23,wordex2_3.png
7,1,7,39,1,1,494.33,wordin2_3.png
7,1,7,40,1,1,470.28,wordex11.png
7,2,8,1,1,1,642.5,nonwex2_6.png
7,1,8,2,1,1,442.5,wordex12.png
7,2,8,3,2,1,714.46,nonwin2_11.png
7,1,8,4,1,1,490.08,wordex6.png
7,1,8,5,1,1,562.38,wordin9.png
7,1,8,6,1,1,482.1,wordex2_1.png
7,2,8,7,1,1,529.73,nonwin2_8.png
7,2,8,8,1,1,546.24,nonwex9.png
7,2,8,9,1,1,402.06,nonwin2_2.png
7,1,8,10,1,1,442.32,wordin8.png
7,2,8,11,2,1,578.01,nonwin10.png
7,2,8,12,1,1,490.25,nonwex5.png
7,1,8,13,1,1,506.29,wordin2_7.png
7,2,8,14,2,1,601.63,nonwex2_3.png
7,2,8,15,1,1,537.66,nonwin5.png
7,1,8,16,1,1,474.23,wordex1.png
7,1,8,17,1,1,858.23,wordin3.png
7,2,8,18,2,1,482.21,nonwin9.png
7,2,8,19,1,1,730.2,nonwex2_4.png
7,2,8,20,1,1,506.19,nonwex2_12.png
7,1,8,21,1,1,458.17,wordex2_10.png
7,1,8,22,1,1,529.76,wordex10.png
7,2,8,23,1,1,585.86,nonwin2_3.png
7,1,8,24,2,1,698.14,wordin4.png
7,2,8,25,2,1,666.11,nonwin2_7.png
7,2,8,26,1,1,682.1,nonwex2.png
7,1,8,27,1,1,490.09,wordex2_3.png
7,2,8,28,1,1,578.07,nonwex6.png
7,1,8,29,2,1,610.06,wordin10.png
7,2,8,30,2,1,634.04,nonwin11.png
7,1,8,31,1,1,522.02,wordex11.png
7,1,8,32,1,1,458.01,wordin2_6.png
7,1,8,33,2,1,730.01,wordin2_2.png
7,2,8,34,1,1,593.35,nonwin7.png
7,1,8,35,1,1,377.97,wordin2_4.png
7,1,8,36,1,1,521.97,wordin2_11.png
7,2,8,37,1,1,481.96,nonwex2_10.png
7,2,8,38,2,1,473.94,nonwex2_2.png
7,1,8,39,2,1,593.93,wordin2_3.png
7,1,8,40,1,1,513.98,wordex2_7.png
8,1,1,1,1,1,1033.93,wordin1.png
8,1,1,2,1,1,873.33,wordin2_9.png
8,2,1,3,2,1,913.21,nonwin7.png
8,2,1,4,2,1,847.99,nonwin11.png
8,2,1,5,2,1,929.34,nonwin2_2.png
8,1,1,6,1,1,649.32,wordex2_3.png
8,1,1,7,0,0,0,wordin4.png
8,1,1,8,1,1,737.13,wordin3.png
8,2,1,9,2,1,905.15,nonwex2_12.png
8,2,1,10,2,1,825.1,nonwin4.png
8,2,1,11,2,1,801.1,nonwin2_11.png
8,1,1,12,1,1,545.09,wordex2_1.png
8,2,1,13,2,1,881.07,nonwex3.png
8,1,1,14,1,1,641.1,wordex11.png
8,2,1,15,2,1,833.08,nonwex11.png
8,2,1,16,2,1,857.02,nonwin9.png
8,1,1,17,1,1,657.02,wordex6.png
8,2,1,18,1,1,817.01,nonwex2_6.png
8,2,1,19,1,1,760.98,nonwin12.png
8,1,1,20,1,1,672.98,wordin2.png
8,1,1,21,1,1,569.2,wordex12.png
8,2,1,22,1,1,808.95,nonwex10.png
8,2,1,23,2,1,824.96,nonwex2.png
8,1,1,24,1,1,640.91,wordin6.png
8,1,1,25,1,1,680.93,wordin2_5.png
8,2,1,26,1,1,856.88,nonwin2.png
8,2,1,27,2,1,848.91,nonwin2_9.png
8,1,1,28,1,1,792.87,wordex10.png
8,2,1,29,2,1,840.85,nonwex2_3.png
8,2,1,30,2,1,736.83,nonwin2_5.png
8,2,1,31,1,1,912.9,nonwin2_1.png
8,1,1,32,1,1,808.91,wordex2_5.png
8,1,1,33,1,1,808.79,wordex9.png
8,2,1,34,2,1,856.79,nonwex2_11.png
8,1,1,35,1,1,544.77,wordin2_4.png
8,1,1,36,1,1,600.78,wordin2_10.png
8,1,1,37,1,1,1104.82,wordin10.png
8,1,1,38,1,1,936.81,wordex3.png
8,2,1,39,2,1,608.81,nonwin2_6.png
8,1,1,40,1,1,544.72,wordin5.png
8,1,2,1,1,1,1022.44,wordin6.png
8,2,2,2,1,1,726.38,nonwin2_6.png
8,2,2,3,2,1,726.36,nonwin2_5.png
8,2,2,4,1,1,646.27,nonwin7.png
8,1,2,5,1,1,766.38,wordin1.png
8,2,2,6,2,1,806.29,nonwin2_11.png
8,2,2,7,2,1,686.4,nonwex2_12.png
8,2,2,8,1,1,758.29,nonwin2.png
8,2,2,9,1,1,638.32,nonwin12.png
8,1,2,10,1,1,686.29,wordex2_1.png
8,2,2,11,2,1,638.25,nonwex11.png
8,2,2,12,2,1,750.25,nonwin11.png
8,2,2,13,2,1,718.22,nonwex2_11.png
8,2,2,14,2,1,614.21,nonwex2.png
8,1,2,15,1,1,566.2,wordin2_5.png
8,2,2,16,1,1,686.2,nonwin2_2.png
8,1,2,17,1,1,702.18,wordex2_5.png
8,1,2,18,1,1,422.17,wordin2.png
8,1,2,19,1,1,550.19,wordex10.png
8,2,2,20,1,1,750.15,nonwex3.png
8,1,2,21,1,1,478.13,wordin3.png
8,1,2,22,1,1,470.1,wordex2_3.png
8,1,2,23,1,1,726.25,wordex3.png
8,1,2,24,1,1,638.09,wordin4.png
8,2,2,25,1,1,790.08,nonwex2_6.png
8,2,2,26,1,1,694.05,nonwex10.png
8,1,2,27,1,1,462.07,wordin2_9.png
8,1,2,28,1,1,526.01,wordex9.png
8,1,2,29,1,1,502.01,wordin2_10.png
8,2,2,30,2,1,1062,nonwin9.png
8,1,2,31,2,1,613.98,wordin10.png
8,2,2,32,2,1,509.98,nonwin2_9.png
8,1,2,33,1,1,493.96,wordex6.png
8,1,2,34,1,1,437.95,wordex12.png
8,1,2,35,1,1,454.01,wordex11.png
8,2,2,36,1,1,573.92,nonwin4.png
8,1,2,37,1,1,501.9,wordin5.png
8,2,2,38,2,1,637.9,nonwin2_1.png
8,2,2,39,2,1,669.92,nonwex2_3.png
8,1,2,40,1,1,549.84,wordin2_4.png
8,1,3,1,1,1,492.88,wordin1.png
8,2,3,2,1,1,724.85,nonwex3.png
8,1,3,3,1,1,420.84,wordin3.png
8,2,3,4,2,1,732.86,nonwex2_3.png
8,1,3,5,1,1,484.85,wordin2_10.png
8,2,3,6,1,1,780.79,nonwex10.png
8,1,3,7,1,1,420.79,wordex2_5.png
8,1,3,8,1,1,356.81,wordex10.png
8,1,3,9,1,1,412.67,wordin2_4.png
8,1,3,10,1,1,340.75,wordex6.png
8,2,3,11,2,1,612.75,nonwin9.png
8,1,3,12,1,1,396.75,wordin5.png
8,1,3,13,1,1,364.74,wordex11.png
8,2,3,14,2,1,612.7,nonwex2.png
8,1,3,15,2,1,884.69,wordin2_9.png
8,2,3,16,1,1,1060.67,nonwex11.png
8,1,3,17,1,1,436.68,wordex2_3.png
8,1,3,18,1,1,460.77,wordin4.png
8,1,3,19,1,1,436.66,wordin10.png
8,1,3,20,1,1,412.65,wordin2_5.png
8,2,3,21,1,1,1060.64,nonwin2_2.png
8,1,3,22,1,1,980.61,wordin2.png
8,2,3,23,1,1,836.6,nonwin2_1.png
8,1,3,24,1,1,412.57,wordin6.png
8,2,3,25,1,1,948.55,nonwin4.png
8,2,3,26,1,1,612.53,nonwin12.png
8,2,3,27,1,1,692.52,nonwex2_6.png
8,1,3,28,1,1,468.52,wordex9.png
8,2,3,29,1,1,916.5,nonwin2_5.png
8,2,3,30,2,1,548.52,nonwin2_9.png
8,1,3,31,1,1,516.47,wordex2_1.png
8,2,3,32,2,1,596.44,nonwin11.png
8,2,3,33,2,1,716.45,nonwin2.png
8,2,3,34,2,1,1052.42,nonwin2_6.png
8,2,3,35,1,1,660.4,nonwin7.png
8,2,3,36,2,1,556.39,nonwex2_12.png
8,1,3,37,1,1,508.39,wordex12.png
8,1,3,38,1,1,740.41,wordex3.png
8,2,3,39,2,1,740.39,nonwex2_11.png
8,2,3,40,2,1,716.38,nonwin2_11.png
8,2,4,1,2,1,622.22,nonwex2_11.png
8,1,4,2,1,1,846.18,wordin5.png
8,1,4,3,1,1,902.17,wordex2_3.png
8,2,4,4,2,1,910.12,nonwin2_9.png
8,1,4,5,1,1,502.16,wordin6.png
8,1,4,6,1,1,430.14,wordin2_10.png
8,2,4,7,2,1,566.12,nonwin2_11.png
8,1,4,8,2,1,798.11,wordin10.png
8,2,4,9,2,1,966.08,nonwex3.png
8,2,4,10,2,1,1062.21,nonwin2_2.png
8,2,4,11,2,1,654.07,nonwex2_12.png
8,2,4,12,2,1,678.05,nonwin2.png
8,2,4,13,2,1,630.04,nonwin2_6.png
8,1,4,14,1,1,598.03,wordex9.png
8,2,4,15,2,1,686.01,nonwin12.png
8,1,4,16,1,1,453.21,wordin2_9.png
8,1,4,17,1,1,462.02,wordin3.png
8,2,4,18,1,1,734.01,nonwin4.png
8,1,4,19,1,1,557.96,wordex2_5.png
8,1,4,20,1,1,869.96,wordex12.png
8,1,4,21,1,1,821.91,wordin2_4.png
8,1,4,22,1,1,533.92,wordex10.png
8,1,4,23,1,1,349.91,wordex11.png
8,2,4,24,2,1,621.89,nonwin2_5.png
8,1,4,25,1,1,517.08,wordin1.png
8,2,4,26,1,1,477.86,nonwin2_1.png
8,1,4,27,1,1,325.85,wordin2_5.png
8,2,4,28,2,1,637.84,nonwex2_3.png
8,2,4,29,2,1,597.83,nonwex2.png
8,1,4,30,1,1,581.8,wordin4.png
8,1,4,31,0,0,0,wordex3.png
8,2,4,32,2,1,661.79,nonwin9.png
8,2,4,33,2,1,589.76,nonwin11.png
8,2,4,34,2,1,549.8,nonwex2_6.png
8,2,4,35,2,1,741.75,nonwex11.png
8,2,4,36,1,1,757.76,nonwex10.png
8,1,4,37,1,1,685.72,wordex6.png
8,2,4,38,1,1,597.74,nonwin7.png
8,1,4,39,1,1,373.83,wordin2.png
8,1,4,40,1,1,469.68,wordex2_1.png
8,1,5,1,1,1,500.93,wordin2_9.png
8,1,5,2,1,1,540.95,wordex2_5.png
8,2,5,3,1,1,508.93,nonwin11.png
8,2,5,4,2,1,572.94,nonwex2_12.png
8,2,5,5,1,1,748.91,nonwin7.png
8,1,5,6,1,1,460.89,wordex10.png
8,2,5,7,2,1,596.88,nonwin2_9.png
8,1,5,8,1,1,804.87,wordex2_3.png
8,2,5,9,2,1,804.89,nonwex3.png
8,2,5,10,2,1,580.84,nonwin9.png
8,1,5,11,1,1,676.86,wordex6.png
8,2,5,12,2,1,684.81,nonwex2_11.png
8,2,5,13,2,1,1028.83,nonwin4.png
8,2,5,14,2,1,684.77,nonwin2_5.png
8,2,5,15,2,1,748.78,nonwex11.png
8,2,5,16,2,1,548.9,nonwex2_6.png
8,1,5,17,1,1,524.74,wordex2_1.png
8,1,5,18,2,1,724.73,wordin10.png
8,1,5,19,1,1,556.73,wordex3.png
8,2,5,20,2,1,596.7,nonwex2_3.png
8,1,5,21,1,1,532.69,wordex12.png
8,2,5,22,1,1,860.68,nonwin12.png
8,2,5,23,2,1,892.7,nonwex2.png
8,1,5,24,1,1,731.78,wordin2.png
8,1,5,25,1,1,524.64,wordin4.png
8,1,5,26,1,1,508.62,wordin1.png
8,2,5,27,2,1,588.62,nonwin2_2.png
8,1,5,28,1,1,652.61,wordin2_5.png
8,2,5,29,1,1,916.6,nonwin2.png
8,1,5,30,1,1,604.58,wordex9.png
8,1,5,31,1,1,556.56,wordin3.png
8,1,5,32,1,1,500.55,wordin6.png
8,2,5,33,2,1,620.54,nonwin2_1.png
8,1,5,34,1,1,476.55,wordin2_4.png
8,1,5,35,1,1,531.7,wordex11.png
8,2,5,36,1,1,948.53,nonwex10.png
8,1,5,37,1,1,1140.52,wordin5.png
8,2,5,38,2,1,724.48,nonwin2_11.png
8,2,5,39,2,1,844.45,nonwin2_6.png
8,1,5,40,1,1,716.18,wordin2_10.png
8,2,6,1,2,1,863.49,nonwin2_9.png
8,2,6,2,2,1,567.53,nonwex2.png
8,2,6,3,2,1,631.47,nonwex2_3.png
8,1,6,4,1,1,735.46,wordin2_9.png
8,2,6,5,1,1,1014.65,nonwin12.png
8,2,6,6,2,1,558.63,nonwin2_11.png
8,2,6,7,2,1,582.63,nonwex2_12.png
8,1,6,8,1,1,535.43,wordin2.png
8,1,6,9,1,1,535.39,wordin10.png
8,2,6,10,1,1,462.59,nonwin2.png
8,1,6,11,1,1,390.28,wordex2_1.png
8,2,6,12,2,1,575.34,nonwin2_1.png
8,1,6,13,1,1,535.32,wordex9.png
8,2,6,14,1,1,798.51,nonwex10.png
8,2,6,15,1,1,526.56,nonwin7.png
8,1,6,16,1,1,390.5,wordex2_3.png
8,2,6,17,1,1,342.93,nonwin2_5.png
8,1,6,18,1,1,342.91,wordex2_5.png
8,1,6,19,1,1,399.24,wordex3.png
8,2,6,20,2,1,758.44,nonwex11.png
8,2,6,21,2,1,639.23,nonwin11.png
8,2,6,22,2,1,639.21,nonwin4.png
8,1,6,23,1,1,606.4,wordin2_5.png
8,1,6,24,1,1,366.88,wordex6.png
8,1,6,25,1,1,390.39,wordex11.png
8,1,6,26,1,1,478.82,wordin3.png
8,1,6,27,1,1,366.84,wordin2_4.png
8,2,6,28,1,1,814.33,nonwex2_6.png
8,1,6,29,1,1,471.15,wordex10.png
8,1,6,30,1,1,414.31,wordin1.png
8,2,6,31,2,1,735.13,nonwex3.png
8,1,6,32,1,1,622.27,wordin5.png
8,1,6,33,1,1,575.06,wordin6.png
8,1,6,34,1,1,438.26,wordex12.png
8,2,6,35,2,1,894.7,nonwin2_6.png
8,2,6,36,1,1,958.24,nonwex2_11.png
8,1,6,37,1,1,719.04,wordin4.png
8,1,6,38,1,1,471,wordin2_10.png
8,2,6,39,2,1,678.99,nonwin2_2.png
8,2,6,40,2,1,1047,nonwin9.png
8,2,7,1,2,1,647.22,nonwin9.png
8,1,7,2,1,1,735.22,wordin5.png
8,1,7,3,1,1,470.38,wordin4.png
8,2,7,4,2,1,622.43,nonwin2_1.png
8,1,7,5,1,1,382.33,wordex3.png
8,1,7,6,1,1,830.35,wordin2_5.png
8,2,7,7,1,1,615.17,nonwex2_6.png
8,2,7,8,1,1,678.31,nonwin2_6.png
8,1,7,9,1,1,406.79,wordin2_9.png
8,1,7,10,1,1,382.21,wordex11.png
8,2,7,11,1,1,646.29,nonwin7.png
8,1,7,12,1,1,454.74,wordex10.png
8,1,7,13,1,1,335.08,wordin6.png
8,1,7,14,1,1,398.26,wordin3.png
8,1,7,15,1,1,310.24,wordex12.png
8,1,7,16,2,1,1039.04,wordin10.png
8,1,7,17,1,1,534.21,wordex2_5.png
8,2,7,18,1,1,486.99,nonwin4.png
8,1,7,19,1,1,430.16,wordex6.png
8,2,7,20,2,1,582.95,nonwin2_2.png
8,1,7,21,1,1,630.93,wordin2.png
8,2,7,22,2,1,614.13,nonwex2_3.png
8,2,7,23,2,1,518.91,nonwex2_12.png
8,2,7,24,2,1,830.93,nonwex3.png
8,2,7,25,2,1,598.91,nonwin2.png
8,2,7,26,2,1,758.08,nonwin2_5.png
8,1,7,27,1,1,446.04,wordin1.png
8,1,7,28,1,1,510.07,wordex2_1.png
8,1,7,29,1,1,294.89,wordin2_10.png
8,1,7,30,1,1,558.5,wordex9.png
8,2,7,31,2,1,590.02,nonwex11.png
8,2,7,32,1,1,566.48,nonwex10.png
8,2,7,33,2,1,774.44,nonwex2_11.png
8,2,7,34,2,1,669.95,nonwin11.png
8,2,7,35,2,1,613.96,nonwin2_11.png
8,1,7,36,1,1,429.95,wordex2_3.png
8,1,7,37,1,1,349.94,wordin2_4.png
8,2,7,38,2,1,734.34,nonwin2_9.png
8,2,7,39,2,1,814.84,nonwin12.png
8,2,7,40,2,1,757.89,nonwex2.png
8,2,8,1,2,1,598.36,nonwin2_2.png
8,1,8,2,1,1,749.99,wordex2_3.png
8,2,8,3,2,1,741.67,nonwin2.png
8,1,8,4,2,1,893.97,wordex2_5.png
8,2,8,5,2,1,693.96,nonwin2_9.png
8,1,8,6,1,1,1214.29,wordex2_1.png
8,2,8,7,2,1,1014.24,nonwex2.png
8,1,8,8,1,1,837.9,wordex6.png
8,2,8,9,2,1,717.88,nonwin2_11.png
8,1,8,10,1,1,1061.88,wordin1.png
8,2,8,11,2,1,789.86,nonwin2_5.png
8,1,8,12,1,1,694.17,wordex11.png
8,2,8,13,2,1,734.19,nonwex3.png
8,2,8,14,2,1,718.11,nonwin9.png
8,1,8,15,1,1,613.37,wordex10.png
8,1,8,16,1,1,837.82,wordex3.png
8,2,8,17,2,1,750.16,nonwex2_12.png
8,2,8,18,2,1,804.79,nonwex2_11.png
8,1,8,19,1,1,550.12,wordin3.png
8,2,8,20,2,1,813.74,nonwin7.png
8,2,8,21,2,1,941.75,nonwin2_6.png
8,2,8,22,2,1,870.11,nonwin2_1.png
8,2,8,23,2,1,805.7,nonwin11.png
8,2,8,24,2,1,717.62,nonwex11.png
8,2,8,25,1,1,598.04,nonwex10.png
8,1,8,26,1,1,485.67,wordin2.png
8,2,8,27,1,1,653.65,nonwex2_6.png
8,1,8,28,2,1,813.66,wordin10.png
8,1,8,29,1,1,677.14,wordin2_4.png
8,1,8,30,1,1,749.62,wordin6.png
8,1,8,31,1,1,341.6,wordex12.png
8,1,8,32,1,1,477.95,wordin5.png
8,2,8,33,1,1,741.59,nonwin4.png
8,2,8,34,2,1,533.55,nonwex2_3.png
8,2,8,35,1,1,1181.56,nonwin12.png
8,1,8,36,1,1,733.89,wordin2_9.png
8,1,8,37,1,1,845.85,wordin2_10.png
8,1,8,38,1,1,621.49,wordin4.png
8,1,8,39,1,1,701.49,wordex9.png
8,1,8,40,1,1,453.46,wordin2_5.png
9,1,1,1,1,1,921.85,wordex3.png
9,2,1,2,2,1,1081.25,nonwin2_5.png
9,1,1,3,1,1,849.14,wordex2_6.png
9,2,1,4,2,1,696.33,nonwin2_1.png
9,2,1,5,2,1,969.1,nonwex2_12.png
9,1,1,6,1,1,809.13,wordin4.png
9,2,1,7,2,1,769.11,nonwex2_9.png
9,1,1,8,1,1,937.05,wordex4.png
9,2,1,9,2,1,1009.07,nonwex2_2.png
9,2,1,10,1,1,1313.06,nonwex2_6.png
9,2,1,11,2,1,937.02,nonwin2.png
9,2,1,12,2,1,704.96,nonwex2_4.png
9,1,1,13,2,1,688.99,wordin2_12.png
9,2,1,14,1,1,880.36,nonwin12.png
9,1,1,15,1,1,768.97,wordex2_4.png
9,1,1,16,1,1,616.95,wordex2_12.png
9,1,1,17,1,1,568.93,wordex2_2.png
9,1,1,18,1,1,624.93,wordin11.png
9,2,1,19,2,1,632.91,nonwex2_11.png
9,1,1,20,1,1,768.9,wordex2_11.png
9,1,1,21,1,1,648.91,wordex2_7.png
9,2,1,22,2,1,616.87,nonwex2_8.png
9,1,1,23,1,1,608.23,wordex2_1.png
9,1,1,24,1,1,576.84,wordex6.png
9,1,1,25,1,1,552.21,wordex5.png
9,2,1,26,2,1,736.88,nonwin9.png
9,2,1,27,1,1,920.88,nonwex5.png
9,1,1,28,1,1,800.78,wordex10.png
9,2,1,29,2,1,832.78,nonwin2_3.png
9,1,1,30,1,1,720.78,wordex11.png
9,1,1,31,1,1,728.76,wordex9.png
9,1,1,32,1,1,760.11,wordin12.png
9,2,1,33,2,1,720.11,nonwin2_4.png
9,2,1,34,1,1,832.71,nonwex1.png
9,2,1,35,2,1,848.73,nonwex2_7.png
9,1,1,36,1,1,776.06,wordin8.png
9,2,1,37,2,1,1080.06,nonwex9.png
9,2,1,38,2,1,896.16,nonwin8.png
9,1,1,39,1,1,616.01,wordin5.png
9,2,1,40,2,1,640,nonwin6.png
9,1,2,1,1,1,600.24,wordex2_7.png
9,1,2,2,1,1,616.25,wordex5.png
9,2,2,3,2,1,720.21,nonwex2_9.png
9,1,2,4,1,1,616.24,wordex11.png
9,2,2,5,2,1,688.24,nonwin2_3.png
9,1,2,6,1,1,560.19,wordex6.png
9,1,2,7,2,1,896.16,wordex2_12.png
9,1,2,8,1,1,832.15,wordex2_11.png
9,2,2,9,2,1,720.13,nonwex1.png
9,2,2,10,2,1,776.12,nonwex2_2.png
9,2,2,11,2,1,808.11,nonwin2_5.png
9,1,2,12,1,1,592.09,wordex2_1.png
9,2,2,13,2,1,1000.13,nonwex9.png
9,1,2,14,2,1,672.11,wordin2_12.png
9,1,2,15,1,1,536.08,wordex2_4.png
9,1,2,16,1,1,504.06,wordin11.png
9,2,2,17,2,1,624.02,nonwex2_7.png
9,2,2,18,2,1,687.38,nonwin9.png
9,2,2,19,1,1,880.03,nonwin2.png
9,1,2,20,1,1,848.01,wordin12.png
9,2,2,21,2,1,759.99,nonwex2_8.png
9,1,2,22,1,1,599.99,wordex3.png
9,2,2,23,1,1,519.95,nonwex2_4.png
9,1,2,24,2,1,751.93,wordin4.png
9,2,2,25,2,1,1247.94,nonwex2_11.png
9,2,2,26,1,1,975.86,nonwex2_12.png
9,1,2,27,1,1,711.93,wordex9.png
9,2,2,28,1,1,767.9,nonwin2_1.png
9,2,2,29,2,1,807.87,nonwex5.png
9,1,2,30,1,1,671.92,wordex10.png
9,2,2,31,2,1,711.87,nonwin12.png
9,1,2,32,1,1,615.86,wordin5.png
9,1,2,33,1,1,607.82,wordin8.png
9,1,2,34,1,1,727.88,wordex4.png
9,2,2,35,2,1,1031.78,nonwin8.png
9,2,2,36,2,1,783.77,nonwex2_6.png
9,1,2,37,1,1,591.09,wordex2_6.png
9,2,2,38,2,1,839.08,nonwin6.png
9,1,2,39,1,1,679.03,wordex2_2.png
9,2,2,40,2,1,663.02,nonwin2_4.png
9,1,3,1,1,1,519.74,wordin11.png
9,2,3,2,1,1,1039.73,nonwin2.png
9,1,3,3,1,1,943.72,wordex2_4.png
9,2,3,4,2,1,1143.66,nonwin2_3.png
9,2,3,5,2,1,783.7,nonwex2_4.png
9,1,3,6,1,1,623.71,wordin8.png
9,1,3,7,1,1,551.67,wordin5.png
9,2,3,8,2,1,599.68,nonwex2_7.png
9,1,3,9,1,1,623.63,wordex2_1.png
9,2,3,10,2,1,583.51,nonwin2_5.png
9,1,3,11,1,1,511.64,wordex5.png
9,1,3,12,1,1,535.62,wordex9.png
9,1,3,13,1,1,719.62,wordex10.png
9,2,3,14,2,1,751.58,nonwex5.png
9,1,3,15,2,1,847.52,wordex4.png
9,2,3,16,1,1,1127.54,nonwin8.png
9,1,3,17,2,1,887.59,wordex6.png
9,1,3,18,1,1,1543.54,wordex2_11.png
9,2,3,19,2,1,687.54,nonwin9.png
9,1,3,20,1,1,726.86,wordex11.png
9,2,3,21,2,1,671.48,nonwin6.png
9,1,3,22,2,1,871.49,wordex2_12.png
9,2,3,23,2,1,879.45,nonwex2_2.png
9,2,3,24,2,1,863.44,nonwex2_6.png
9,2,3,25,2,1,775.45,nonwin12.png
9,2,3,26,2,1,631.41,nonwex9.png
9,1,3,27,1,1,919.42,wordin4.png
9,1,3,28,1,1,1095.42,wordex3.png
9,1,3,29,1,1,623.37,wordex2_6.png
9,1,3,30,1,1,599.35,wordex2_7.png
9,2,3,31,2,1,1015.33,nonwex2_12.png
9,2,3,32,2,1,671.47,nonwex2_11.png
9,1,3,33,1,1,647.32,wordin12.png
9,2,3,34,2,1,759.29,nonwin2_4.png
9,2,3,35,2,1,711.28,nonwex2_8.png
9,1,3,36,1,1,631.27,wordex2_2.png
9,2,3,37,1,1,919.26,nonwin2_1.png
9,1,3,38,2,1,599.25,wordin2_12.png
9,2,3,39,2,1,807.23,nonwex2_9.png
9,2,3,40,2,1,638.46,nonwex1.png
9,1,4,1,1,1,586.06,wordex6.png
9,2,4,2,2,1,530.08,nonwex2_8.png
9,1,4,3,1,1,586.04,wordex3.png
9,1,4,4,1,1,426.16,wordin11.png
9,2,4,5,2,1,642.02,nonwin2_5.png
9,1,4,6,1,1,577.36,wordin12.png
9,2,4,7,2,1,641.37,nonwin2_3.png
9,2,4,8,2,1,529.34,nonwex2_7.png
9,2,4,9,2,1,529.96,nonwex2_6.png
9,1,4,10,1,1,465.43,wordex2_6.png
9,1,4,11,1,1,465.2,wordex5.png
9,2,4,12,2,1,505.64,nonwex2_11.png
9,1,4,13,1,1,585.62,wordex10.png
9,1,4,14,1,1,537.89,wordex2_1.png
9,2,4,15,2,1,545.25,nonwin6.png
9,1,4,16,1,1,513.24,wordin2_12.png
9,2,4,17,2,1,857.23,nonwex2_2.png
9,1,4,18,1,1,665.55,wordex2_2.png
9,1,4,19,1,1,545.55,wordin4.png
9,2,4,20,2,1,601.63,nonwin2_1.png
9,2,4,21,2,1,625.81,nonwin9.png
9,2,4,22,2,1,665.5,nonwin8.png
9,2,4,23,2,1,673.77,nonwex2_9.png
9,1,4,24,1,1,529.49,wordex2_11.png
9,2,4,25,1,1,953.78,nonwex2_4.png
9,1,4,26,2,1,913.74,wordex4.png
9,2,4,27,2,1,632.83,nonwex2_12.png
9,1,4,28,1,1,569.09,wordex2_7.png
9,1,4,29,2,1,641.7,wordex2_12.png
9,1,4,30,1,1,1009.71,wordex11.png
9,1,4,31,1,1,537.38,wordex2_4.png
9,2,4,32,2,1,601.36,nonwin12.png
9,2,4,33,2,1,553.63,nonwin2_4.png
9,2,4,34,2,1,704.93,nonwex9.png
9,1,4,35,1,1,577.34,wordin5.png
9,2,4,36,2,1,665.62,nonwin2.png
9,2,4,37,2,1,617.36,nonwex5.png
9,1,4,38,1,1,569.3,wordin8.png
9,1,4,39,2,1,1001.27,wordex9.png
9,2,4,40,2,1,889.27,nonwex1.png
9,2,5,1,2,1,881.87,nonwex2_12.png
9,1,5,2,1,1,769.57,wordex10.png
9,2,5,3,2,1,593.57,nonwin2_3.png
9,2,5,4,2,1,593.19,nonwex1.png
9,1,5,5,1,1,553.19,wordin12.png
9,2,5,6,2,1,793.49,nonwex2_4.png
9,2,5,7,2,1,537.93,nonwex2_2.png
9,2,5,8,2,1,577.15,nonwin9.png
9,1,5,9,1,1,569.41,wordex5.png
9,1,5,10,1,1,497.12,wordex2_11.png
9,1,5,11,1,1,449.46,wordin8.png
9,2,5,12,2,1,401.72,nonwex9.png
9,1,5,13,1,1,544.93,wordex2_6.png
9,2,5,14,2,1,601.42,nonwex2_11.png
9,2,5,15,2,1,545.06,nonwex2_8.png
9,1,5,16,1,1,545.04,wordex9.png
9,1,5,17,1,1,577.02,wordex2_4.png
9,2,5,18,2,1,577.36,nonwex2_6.png
9,2,5,19,2,1,641.35,nonwin2_4.png
9,1,5,20,1,1,545.72,wordex3.png
9,1,5,21,1,1,705.32,wordin11.png
9,1,5,22,1,1,976.96,wordex2_1.png
9,2,5,23,2,1,897.57,nonwex2_9.png
9,1,5,24,1,1,593.43,wordex2_7.png
9,1,5,25,2,1,656.92,wordex4.png
9,1,5,26,1,1,528.9,wordex6.png
9,2,5,27,1,1,752.9,nonwin2.png
9,2,5,28,2,1,592.87,nonwin12.png
9,1,5,29,1,1,680.9,wordex11.png
9,2,5,30,2,1,625.19,nonwin2_5.png
9,1,5,31,1,1,537.55,wordin4.png
9,2,5,32,2,1,616.83,nonwin6.png
9,2,5,33,2,1,744.81,nonwex5.png
9,2,5,34,2,1,777.15,nonwin2_1.png
9,2,5,35,2,1,617.12,nonwex2_7.png
9,1,5,36,2,1,529.41,wordin2_12.png
9,1,5,37,1,1,641.4,wordin5.png
9,1,5,38,2,1,992.7,wordex2_12.png
9,2,5,39,2,1,657.39,nonwin8.png
9,1,5,40,1,1,744.71,wordex2_2.png
9,1,6,1,1,1,664.64,wordex10.png
9,2,6,2,2,1,688.1,nonwin2_4.png
9,2,6,3,1,1,1032.09,nonwin2.png
9,2,6,4,2,1,592.71,nonwin6.png
9,1,6,5,1,1,488.36,wordex2_2.png
9,1,6,6,1,1,520.05,wordex11.png
9,2,6,7,2,1,568.37,nonwin12.png
9,2,6,8,2,1,608.37,nonwex2_11.png
9,1,6,9,1,1,504.47,wordex6.png
9,2,6,10,2,1,663.99,nonwin8.png
9,1,6,11,1,1,480.33,wordex2_4.png
9,2,6,12,1,1,536.59,nonwin9.png
9,1,6,13,1,1,679.95,wordex2_6.png
9,2,6,14,2,1,792.28,nonwex2_9.png
9,1,6,15,1,1,880.54,wordex4.png
9,2,6,16,2,1,672.53,nonwex1.png
9,1,6,17,1,1,984.31,wordex2_12.png
9,1,6,18,1,1,680.22,wordin8.png
9,2,6,19,2,1,664.52,nonwex9.png
9,1,6,20,1,1,895.84,wordex5.png
9,2,6,21,2,1,680.19,nonwin2_3.png
9,1,6,22,1,1,927.83,wordex9.png
9,2,6,23,1,1,872.53,nonwex2_12.png
9,2,6,24,2,1,743.81,nonwex2_8.png
9,2,6,25,2,1,599.85,nonwex2_7.png
9,2,6,26,2,1,615.77,nonwex5.png
9,1,6,27,1,1,559.76,wordex2_7.png
9,1,6,28,1,1,528.38,wordex2_1.png
9,1,6,29,1,1,504.08,wordin12.png
9,1,6,30,1,1,416.37,wordin4.png
9,1,6,31,1,1,487.71,wordin5.png
9,2,6,32,2,1,608.32,nonwin2_1.png
9,2,6,33,2,1,536.31,nonwex2_2.png
9,1,6,34,2,1,671.68,wordin11.png
9,2,6,35,1,1,735.66,nonwex2_6.png
9,2,6,36,2,1,799.65,nonwin2_5.png
9,1,6,37,1,1,647.98,wordex3.png
9,1,6,38,2,1,583.98,wordin2_12.png
9,2,6,39,2,1,543.95,nonwex2_4.png
9,1,6,40,1,1,551.59,wordex2_11.png
9,1,7,1,1,1,560.98,wordex3.png
9,2,7,2,1,1,1008.88,nonwex5.png
9,1,7,3,1,1,616.6,wordex2_11.png
9,1,7,4,2,1,608.58,wordin2_12.png
9,2,7,5,2,1,576.56,nonwex2_6.png
9,1,7,6,1,1,528.31,wordex5.png
9,1,7,7,1,1,440.18,wordex10.png
9,1,7,8,1,1,424.81,wordin5.png
9,2,7,9,0,0,0,nonwex2_11.png
9,2,7,10,0,0,0,nonwin12.png
9,2,7,11,2,1,24.79,nonwin2.png
9,1,7,12,1,1,568.85,wordex2_7.png
9,2,7,13,2,1,1496.47,nonwex2_8.png
9,1,7,14,1,1,552.47,wordex2_2.png
9,2,7,15,2,1,552.74,nonwex2_2.png
9,1,7,16,1,1,552.42,wordex11.png
9,1,7,17,1,1,600.68,wordin12.png
9,1,7,18,1,1,960.4,wordin4.png
9,1,7,19,1,1,608.38,wordex2_4.png
9,1,7,20,1,1,448.65,wordex9.png
9,1,7,21,2,1,616.42,wordex2_12.png
9,2,7,22,2,1,656.33,nonwex2_7.png
9,2,7,23,2,1,440.6,nonwex2_9.png
9,2,7,24,2,1,520.32,nonwin9.png
9,2,7,25,2,1,512.57,nonwin8.png
9,1,7,26,1,1,560.56,wordex2_1.png
9,1,7,27,1,1,504.27,wordex2_6.png
9,2,7,28,1,1,368.26,nonwin2_5.png
9,2,7,29,2,1,824.52,nonwex1.png
9,1,7,30,1,1,696.23,wordex6.png
9,2,7,31,2,1,600.23,nonwin2_1.png
9,1,7,32,2,1,544.11,wordin8.png
9,2,7,33,2,1,688.52,nonwex2_12.png
9,2,7,34,2,1,776.21,nonwex2_4.png
9,1,7,35,1,1,1000.43,wordex4.png
9,2,7,36,2,1,592.42,nonwex9.png
9,2,7,37,2,1,584.09,nonwin2_4.png
9,2,7,38,2,1,560.4,nonwin2_3.png
9,1,7,39,1,1,592.39,wordin11.png
9,2,7,40,2,1,752.1,nonwin6.png
9,2,8,1,2,1,542.22,nonwex2_7.png
9,2,8,2,2,1,469.65,nonwex9.png
9,1,8,3,2,1,670.27,wordex2_12.png
9,1,8,4,1,1,669.63,wordex2_7.png
9,2,8,5,2,1,606.24,nonwex1.png
9,2,8,6,2,1,605.96,nonwin2_3.png
9,2,8,7,2,1,733.92,nonwex2_12.png
9,2,8,8,2,1,613.95,nonwex2_6.png
9,1,8,9,1,1,478.07,wordin11.png
9,1,8,10,1,1,470.2,wordin8.png
9,1,8,11,1,1,389.94,wordex10.png
9,1,8,12,1,1,389.88,wordex3.png
9,2,8,13,2,1,637.52,nonwin6.png
9,1,8,14,2,1,646.13,wordex2_1.png
9,2,8,15,2,1,654.13,nonwex2_11.png
9,2,8,16,2,1,574.12,nonwex2_8.png
9,1,8,17,1,1,550.09,wordex2_6.png
9,2,8,18,2,1,613.8,nonwex2_9.png
9,2,8,19,2,1,477.78,nonwin9.png
9,2,8,20,2,1,453.76,nonwin2_4.png
9,1,8,21,1,1,622.04,wordin12.png
9,1,8,22,1,1,606.03,wordex2_11.png
9,2,8,23,2,1,590.01,nonwex2_4.png
9,2,8,24,2,1,518.01,nonwex5.png
9,2,8,25,2,1,517.97,nonwin12.png
9,2,8,26,1,1,821.95,nonwin2.png
9,2,8,27,2,1,621.95,nonwin2_5.png
9,1,8,28,1,1,629.69,wordin5.png
9,1,8,29,1,1,485.65,wordex6.png
9,2,8,30,2,1,629.63,nonwin2_1.png
9,1,8,31,1,1,661.61,wordex5.png
9,1,8,32,1,1,781.6,wordex2_2.png
9,1,8,33,1,1,597.71,wordex11.png
9,2,8,34,2,1,581.86,nonwin8.png
9,2,8,35,2,1,597.21,nonwex2_2.png
9,1,8,36,1,1,629.55,wordex9.png
9,1,8,37,1,1,541.54,wordex2_4.png
9,1,8,38,1,1,445.53,wordin4.png
9,1,8,39,2,1,773.78,wordex4.png
9,1,8,40,2,1,613.78,wordin2_12.png
10,1,1,1,1,1,899.08,wordin9.png
10,1,1,2,2,1,1154.33,wordex9.png
10,2,1,3,2,1,611.05,nonwex4.png
10,2,1,4,2,1,683.04,nonwin10.png
10,2,1,5,2,1,546.28,nonwin5.png
10,1,1,6,1,1,651.05,wordex7.png
10,2,1,7,2,1,602.98,nonwex5.png
10,2,1,8,2,1,562.99,nonwin2_8.png
10,1,1,9,1,1,499.1,wordin2_4.png
10,2,1,10,2,1,634.93,nonwex2_3.png
10,1,1,11,2,1,562.66,wordin2_12.png
10,2,1,12,2,1,850.66,nonwex2_8.png
10,1,1,13,1,1,450.89,wordin4.png
10,2,1,14,2,1,562.9,nonwin7.png
10,2,1,15,2,1,642.89,nonwin2_10.png
10,2,1,16,2,1,474.09,nonwex2_1.png
10,2,1,17,2,1,562.86,nonwex10.png
10,1,1,18,1,1,666.81,wordex8.png
10,2,1,19,1,1,954.81,nonwex8.png
10,1,1,20,1,1,522.81,wordex4.png
10,2,1,21,2,1,698.8,nonwin12.png
10,1,1,22,1,1,602.01,wordex1.png
10,1,1,23,1,1,450.72,wordin7.png
10,1,1,24,1,1,498.77,wordin2_3.png
10,2,1,25,2,1,618.74,nonwin8.png
10,1,1,26,1,1,458.74,wordex2_1.png
10,1,1,27,1,1,394.72,wordex2_7.png
10,1,1,28,1,1,570.7,wordin6.png
10,1,1,29,1,1,513.92,wordex10.png
10,1,1,30,1,1,458.49,wordin2_6.png
10,1,1,31,1,1,473.84,wordin2_7.png
10,1,1,32,1,1,442.65,wordex2_8.png
10,2,1,33,2,1,1017.74,nonwin9.png
10,1,1,34,1,1,538.35,wordin5.png
10,2,1,35,2,1,570.61,nonwex2_11.png
10,2,1,36,2,1,522.61,nonwin2_7.png
10,2,1,37,2,1,505.77,nonwin2_2.png
10,2,1,38,2,1,530.29,nonwex2_7.png
10,2,1,39,2,1,457.91,nonwex2.png
10,1,1,40,1,1,466.56,wordex2_12.png
10,2,2,1,2,1,634.8,nonwex5.png
10,2,2,2,2,1,634.77,nonwin2_2.png
10,2,2,3,2,1,610.78,nonwex2.png
10,1,2,4,1,1,618.77,wordin2_7.png
10,1,2,5,1,1,410.75,wordin9.png
10,2,2,6,2,1,530.75,nonwex10.png
10,2,2,7,2,1,505.93,nonwex2_3.png
10,1,2,8,1,1,410.72,wordin5.png
10,2,2,9,2,1,450.7,nonwex2_11.png
10,1,2,10,1,1,497.85,wordex10.png
10,2,2,11,2,1,410.67,nonwin5.png
10,2,2,12,2,1,626.67,nonwex4.png
10,1,2,13,1,1,450.66,wordex8.png
10,2,2,14,2,1,346.63,nonwin8.png
10,2,2,15,2,1,506.62,nonwex2_7.png
10,2,2,16,2,1,514.62,nonwin2_8.png
10,1,2,17,1,1,442.58,wordex2_12.png
10,2,2,18,2,1,578.56,nonwin2_7.png
10,1,2,19,1,1,386.71,wordin6.png
10,1,2,20,1,1,385.75,wordin4.png
10,2,2,21,2,1,506.53,nonwin2_10.png
10,1,2,22,1,1,506.53,wordin7.png
10,2,2,23,2,1,418.51,nonwex2_8.png
10,1,2,24,1,1,401.71,wordex2_7.png
10,1,2,25,2,1,538.5,wordin2_12.png
10,1,2,26,1,1,650.47,wordin2_6.png
