SID,Familiarity,Trial,Repetition,Loc,Resp,Corr,RT,ImgName
1,2,1,2,3,3,1,1096.66,unknown_female08.jpg
1,2,2,2,1,1,1,646.24,unknown_male07.jpg
1,2,3,2,3,3,1,555.8,unknown_male03.jpg
1,1,4,1,4,4,1,609.39,famous_female13.jpg
1,2,5,1,3,3,1,374.93,unknown_female15.jpg
1,1,6,2,1,1,1,668.45,famous_female02.jpg
1,2,7,2,4,4,1,690.02,unknown_female01.jpg
1,1,8,2,4,4,1,1103.58,famous_female06.jpg
1,1,9,2,3,3,1,477.1,famous_female11.jpg
1,2,10,2,3,3,1,746.64,unknown_male13.jpg
1,1,11,2,2,2,1,928.26,famous_male08.jpg
1,1,12,2,4,4,1,709.74,famous_female15.jpg
1,1,13,1,3,3,1,1035.3,famous_female01.jpg
1,1,14,2,2,2,1,680.9,famous_female07.jpg
1,2,15,1,3,3,1,734.34,unknown_male08.jpg
1,1,16,1,3,3,1,1249.49,famous_female10.jpg
1,2,17,1,2,2,1,575.06,unknown_male05.jpg
1,1,18,2,1,1,1,1572.63,famous_female18.jpg
1,2,19,1,3,3,1,1066.17,unknown_male06.jpg
1,2,20,1,4,4,1,839.73,unknown_male17.jpg
1,1,21,1,4,4,1,957.26,famous_female05.jpg
1,2,22,2,4,4,1,954.84,unknown_male10.jpg
1,2,23,2,2,2,1,992.33,unknown_male15.jpg
1,2,24,2,4,4,1,1541.89,unknown_male20.jpg
1,2,25,1,3,3,1,1387.52,unknown_female05.jpg
1,2,26,2,2,2,1,1049.07,unknown_female12.jpg
1,2,27,1,4,4,1,1390.6,unknown_female14.jpg
1,2,28,1,2,2,1,996.21,unknown_female06.jpg
1,2,29,1,1,1,1,937.72,unknown_female20.jpg
1,1,30,2,2,2,1,415.26,famous_male04.jpg
1,2,31,1,1,1,1,1084.82,unknown_female04.jpg
1,1,32,1,1,1,1,546.37,famous_female16.jpg
1,1,33,2,3,3,1,807.99,famous_male19.jpg
1,2,34,1,3,3,1,1285.48,unknown_male14.jpg
1,1,35,2,3,3,1,467.03,famous_female19.jpg
1,1,36,2,2,2,1,400.6,famous_female14.jpg
1,1,37,1,2,2,1,1166.13,famous_female20.jpg
1,2,38,1,2,2,1,755.68,unknown_female19.jpg
1,1,39,1,1,1,1,1225.24,famous_female12.jpg
1,2,40,2,2,2,1,734.68,unknown_male12.jpg
1,2,41,1,4,4,1,876.28,unknown_female07.jpg
1,1,42,1,4,4,1,1361.93,famous_male14.jpg
1,1,43,1,1,1,1,1111.42,famous_male13.jpg
1,2,44,1,1,1,1,893.01,unknown_female02.jpg
1,1,45,1,2,2,1,522.56,famous_male18.jpg
1,2,46,2,3,3,1,624.11,unknown_female16.jpg
1,1,47,2,1,1,1,885.67,famous_male02.jpg
1,2,48,2,4,4,1,539.21,unknown_female18.jpg
1,2,49,2,3,3,1,832.77,unknown_male16.jpg
1,2,50,1,1,1,1,606.32,unknown_male11.jpg
1,1,51,1,4,4,1,1059.89,famous_female04.jpg
1,1,52,2,3,3,1,1145.4,famous_male07.jpg
1,2,53,1,1,1,1,1166.99,unknown_male04.jpg
1,1,54,1,2,2,1,1156.53,famous_male11.jpg
1,1,55,1,3,3,1,1098.03,famous_male12.jpg
1,1,56,1,2,2,1,1343.6,famous_female03.jpg
1,2,57,2,1,1,1,1421.19,unknown_male09.jpg
1,1,58,1,3,3,1,1266.64,famous_male10.jpg
1,2,59,2,2,2,1,1144.32,unknown_male02.jpg
1,2,60,2,1,1,1,605.83,unknown_female11.jpg
1,2,61,2,4,4,1,987.46,unknown_female13.jpg
1,1,62,1,4,4,1,576.93,famous_male01.jpg
1,2,63,2,1,1,1,910.51,unknown_female17.jpg
1,1,64,1,3,3,1,340.08,famous_male20.jpg
1,1,65,1,1,1,1,457.62,famous_male03.jpg
1,1,66,2,1,1,1,1575.17,famous_male17.jpg
1,1,67,2,1,1,1,1452.73,famous_female08.jpg
1,2,68,1,2,2,1,1586.25,unknown_male18.jpg
1,2,69,1,4,4,1,1319.77,unknown_female09.jpg
1,2,70,1,4,4,1,1317.37,unknown_male01.jpg
1,1,71,1,2,2,1,1018.95,famous_male06.jpg
1,1,72,2,2,2,1,1352.47,famous_male09.jpg
1,1,73,2,3,3,1,1205.93,famous_male05.jpg
1,2,74,2,2,2,1,1251.61,unknown_female10.jpg
1,1,75,2,4,4,1,1209.11,famous_female17.jpg
1,2,76,1,2,2,1,662.64,unknown_male19.jpg
1,1,77,1,1,1,1,1100.25,famous_female09.jpg
1,2,78,2,1,1,1,729.8,unknown_female03.jpg
1,1,79,2,4,4,1,1343.39,famous_male15.jpg
1,1,80,2,4,4,1,1804.85,famous_male16.jpg
2,1,1,2,1,1,1,826.78,famous_female04.jpg
2,1,2,1,1,1,1,624.34,famous_female17.jpg
2,1,3,1,2,2,1,781.89,famous_female16.jpg
2,1,4,1,1,1,1,659.45,famous_female12.jpg
2,2,5,2,4,4,1,760.99,unknown_female16.jpg
2,1,6,2,2,2,1,782.56,famous_female14.jpg
2,2,7,1,3,3,1,740.11,unknown_female06.jpg
2,1,8,1,2,2,1,889.66,famous_male12.jpg
2,1,9,2,3,3,1,927.27,famous_male01.jpg
2,2,10,2,4,4,1,764.76,unknown_female19.jpg
2,2,11,1,1,1,1,506.34,unknown_female02.jpg
2,2,12,1,2,2,1,559.87,unknown_female04.jpg
2,2,13,1,1,1,1,405.41,unknown_male07.jpg
2,1,14,2,4,4,1,522.96,famous_female18.jpg
2,2,15,1,4,4,1,688.55,unknown_male02.jpg
2,2,16,1,3,3,1,582.08,unknown_male08.jpg
2,1,17,1,3,3,1,515.63,famous_male14.jpg
2,2,18,2,1,1,1,577.22,unknown_female18.jpg
2,1,19,2,4,4,1,686.74,famous_female03.jpg
2,1,20,2,3,3,1,612.33,famous_male13.jpg
2,1,21,2,3,3,1,657.84,famous_female11.jpg
2,2,22,2,1,1,1,599.41,unknown_male05.jpg
2,1,23,2,1,1,1,420.93,famous_female20.jpg
2,2,24,1,4,4,1,586.51,unknown_male14.jpg
2,2,25,1,4,4,1,448.05,unknown_female03.jpg
2,2,26,2,3,3,1,485.6,unknown_female01.jpg
2,1,27,1,2,2,1,419.19,famous_male03.jpg
2,2,28,2,1,1,1,576.72,unknown_female08.jpg
2,2,29,2,1,1,1,550.26,unknown_male11.jpg
2,1,30,1,3,3,1,595.82,famous_male08.jpg
2,1,31,2,1,1,1,721.36,famous_female15.jpg
2,2,32,2,2,2,1,590.96,unknown_female10.jpg
2,1,33,1,1,1,1,644.46,famous_male10.jpg
2,1,34,2,4,4,1,658.03,famous_male05.jpg
2,2,35,1,1,1,1,647.58,unknown_male19.jpg
2,1,36,1,4,4,1,557.16,famous_male17.jpg
2,2,37,2,2,2,1,754.74,unknown_male15.jpg
2,1,38,1,3,3,1,528.24,famous_male04.jpg
2,2,39,1,3,3,1,533.82,unknown_male18.jpg
2,2,40,1,1,1,1,443.35,unknown_female11.jpg
2,2,41,2,2,2,1,496.82,unknown_male13.jpg
2,1,42,1,4,4,1,526.46,famous_female09.jpg
2,2,43,2,3,3,1,564.03,unknown_male10.jpg
2,2,44,2,4,4,1,497.57,unknown_female13.jpg
2,1,45,1,2,2,1,439.14,famous_male15.jpg
2,1,46,2,2,2,1,828.66,famous_female10.jpg
2,1,47,2,4,4,1,674.21,famous_female07.jpg
2,2,48,1,4,4,1,471.78,unknown_female12.jpg
2,1,49,1,3,3,1,685.35,famous_female08.jpg
2,1,50,1,4,4,1,514.87,famous_male16.jpg
2,2,51,2,1,1,1,536.43,unknown_female15.jpg
2,1,52,1,2,2,1,557.99,famous_female01.jpg
2,1,53,1,1,1,1,779.56,famous_female13.jpg
2,2,54,2,2,2,1,481.06,unknown_female09.jpg
2,2,55,1,4,4,1,582.63,unknown_female20.jpg
2,1,56,2,2,2,1,620.16,famous_male11.jpg
2,2,57,1,2,2,1,641.74,unknown_female07.jpg
2,2,58,1,3,3,1,663.31,unknown_male03.jpg
2,1,59,2,3,3,1,572.86,famous_male09.jpg
2,2,60,1,3,3,1,666.4,unknown_female14.jpg
2,2,61,2,3,3,1,647.98,unknown_male16.jpg
2,2,62,1,2,2,1,445.54,unknown_male01.jpg
2,2,63,2,3,3,1,579.06,unknown_female05.jpg
2,2,64,1,2,2,1,584.62,unknown_male04.jpg
2,1,65,1,3,3,1,582.17,famous_female02.jpg
2,1,66,2,4,4,1,1427.74,famous_male18.jpg
2,2,67,2,4,4,1,697.3,unknown_male12.jpg
2,2,68,2,4,4,1,558.83,unknown_male20.jpg
2,1,69,2,2,2,1,516.39,famous_male06.jpg
2,1,70,1,1,1,1,665.94,famous_male07.jpg
2,2,71,1,2,2,1,447.49,unknown_male17.jpg
2,1,72,1,4,4,1,469.03,famous_female19.jpg
2,1,73,2,2,2,1,442.6,famous_male20.jpg
2,2,74,2,3,3,1,512.15,unknown_male09.jpg
2,2,75,2,2,2,1,397.69,unknown_male06.jpg
2,1,76,2,1,1,1,635.25,famous_male19.jpg
2,1,77,2,1,1,1,424.79,famous_male02.jpg
2,2,78,1,1,1,1,494.29,unknown_female17.jpg
2,1,79,1,4,4,1,467.9,famous_female06.jpg
2,1,80,2,3,3,1,633.47,famous_female05.jpg
3,2,1,1,3,3,1,941.74,unknown_female11.jpg
3,2,2,1,1,1,1,851.27,unknown_male20.jpg
3,1,3,1,2,2,1,680.82,famous_female20.jpg
3,1,4,2,3,3,1,526.3,famous_female02.jpg
3,2,5,1,3,3,1,611.92,unknown_male01.jpg
3,2,6,2,1,1,1,713.47,unknown_female01.jpg
3,1,7,1,2,2,1,655.03,famous_male20.jpg
3,2,8,2,2,2,1,588.59,unknown_male19.jpg
3,2,9,2,4,4,1,882.13,unknown_female14.jpg
3,2,10,1,4,4,1,575.69,unknown_female05.jpg
3,2,11,1,2,2,1,517.25,unknown_male03.jpg
3,2,12,2,2,2,1,458.79,unknown_female03.jpg
3,1,13,1,2,2,1,560.36,famous_male07.jpg
3,1,14,2,1,1,1,453.89,famous_male13.jpg
3,2,15,1,2,2,1,355.48,unknown_male02.jpg
3,1,16,2,1,1,1,441.02,famous_female13.jpg
3,1,17,2,3,3,1,622.59,famous_male11.jpg
3,1,18,2,1,1,1,452.11,famous_female08.jpg
3,1,19,2,2,2,1,633.66,famous_male08.jpg
3,2,20,2,4,4,1,823.2,unknown_male14.jpg
3,2,21,1,1,1,1,660.76,unknown_female16.jpg
3,1,22,2,3,3,1,682.3,famous_female15.jpg
3,2,23,1,1,1,1,664,unknown_female09.jpg
3,2,24,1,2,2,1,805.47,unknown_female04.jpg
3,1,25,1,2,2,1,602.98,famous_male09.jpg
3,1,26,1,4,4,1,888.56,famous_male16.jpg
3,1,27,1,1,1,1,678.08,famous_female09.jpg
3,2,28,1,4,4,1,923.64,unknown_female02.jpg
3,2,29,1,2,2,1,473.31,unknown_male11.jpg
3,1,30,1,4,4,1,670.75,famous_female14.jpg
3,1,31,1,1,1,1,852.3,famous_male10.jpg
3,2,32,2,2,2,1,825.85,unknown_male08.jpg
3,2,33,2,3,3,1,631.4,unknown_female15.jpg
3,1,34,1,3,3,1,428.95,famous_male12.jpg
3,1,35,1,1,1,1,458.5,famous_female06.jpg
3,2,36,2,1,1,1,408.06,unknown_male16.jpg
3,2,37,1,4,4,1,773.61,unknown_male10.jpg
3,1,38,1,3,3,1,547.17,famous_female07.jpg
3,2,39,2,3,3,1,464.72,unknown_male15.jpg
3,1,40,2,3,3,1,558.28,famous_male06.jpg
3,1,41,2,2,2,1,659.82,famous_female11.jpg
3,2,42,2,3,3,1,481.38,unknown_female18.jpg
3,2,43,2,1,1,1,838.93,unknown_female12.jpg
3,1,44,2,4,4,1,660.48,famous_male03.jpg
3,2,45,1,2,2,1,410.06,unknown_female06.jpg
3,1,46,1,4,4,1,935.59,famous_female03.jpg
3,1,47,2,4,4,1,813.19,famous_male18.jpg
3,1,48,1,3,3,1,866.68,famous_female19.jpg
3,2,49,2,2,2,1,600.26,unknown_female10.jpg
3,2,50,1,1,1,1,637.8,unknown_male06.jpg
3,1,51,2,3,3,1,443.35,famous_male17.jpg
3,1,52,1,3,3,1,408.9,famous_male01.jpg
3,2,53,2,3,3,1,430.46,unknown_male18.jpg
3,1,54,1,4,4,1,820.01,famous_female05.jpg
3,1,55,2,2,2,1,377.59,famous_male14.jpg
3,1,56,2,4,4,1,591.11,famous_female04.jpg
3,2,57,1,4,4,1,716.7,unknown_female08.jpg
3,1,58,2,1,1,1,698.22,famous_female12.jpg
3,1,59,2,4,4,1,775.75,famous_female01.jpg
3,2,60,2,4,4,1,661.33,unknown_male17.jpg
3,2,61,2,4,4,1,706.89,unknown_female19.jpg
3,1,62,2,4,4,1,496.39,famous_female10.jpg
3,2,63,2,2,2,1,517.98,unknown_male12.jpg
3,2,64,2,1,1,1,1139.53,unknown_male04.jpg
3,1,65,1,4,4,1,761.09,famous_male19.jpg
3,2,66,2,4,4,1,982.66,unknown_female20.jpg
3,1,67,2,2,2,1,500.22,famous_male02.jpg
3,1,68,1,2,2,1,593.76,famous_female16.jpg
3,1,69,1,1,1,1,1063.32,famous_female18.jpg
3,2,70,1,1,1,1,532.86,unknown_female17.jpg
3,2,71,2,1,1,1,786.42,unknown_female07.jpg
3,2,72,2,3,3,1,743.96,unknown_male05.jpg
3,1,73,1,1,1,1,525.51,famous_male15.jpg
3,1,74,2,2,2,1,819.08,famous_female17.jpg
3,2,75,1,3,3,1,1144.64,unknown_female13.jpg
3,2,76,1,3,3,1,542.19,unknown_male13.jpg
3,1,77,2,1,1,1,563.74,famous_male05.jpg
3,2,78,1,3,3,1,497.29,unknown_male07.jpg
3,1,79,1,3,3,1,430.84,famous_male04.jpg
3,2,80,1,4,4,1,876.4,unknown_male09.jpg
4,2,1,1,2,2,1,917.06,unknown_male12.jpg
4,1,2,2,4,4,1,890.6,famous_female08.jpg
4,1,3,2,3,3,1,784.17,famous_female15.jpg
4,1,4,1,2,2,1,701.74,famous_male07.jpg
4,2,5,1,1,1,1,699.27,unknown_female15.jpg
4,1,6,1,4,4,1,952.78,famous_male14.jpg
4,2,7,1,1,1,1,814.4,unknown_female06.jpg
4,1,8,2,4,4,1,739.92,famous_male04.jpg
4,2,9,2,2,2,1,1313.47,unknown_female12.jpg
4,2,10,2,1,1,1,1319.04,unknown_male14.jpg
4,1,11,2,4,4,1,1228.59,famous_female07.jpg
4,2,12,2,3,3,1,906.19,unknown_female02.jpg
4,1,13,2,2,2,1,1231.71,famous_female13.jpg
4,2,14,2,1,1,1,1709.25,unknown_female17.jpg
4,2,15,1,4,4,1,1786.74,unknown_female13.jpg
4,2,16,2,3,3,1,3256.26,unknown_male03.jpg
4,1,17,2,2,2,1,1621.85,famous_male16.jpg
4,2,18,1,3,3,1,3035.45,unknown_female05.jpg
4,2,19,2,4,4,1,2857.01,unknown_male02.jpg
4,1,20,1,1,1,1,1854.55,famous_female20.jpg
4,2,21,1,2,2,1,1772.1,unknown_male04.jpg
4,2,22,2,3,3,1,1745.65,unknown_male15.jpg
4,1,23,2,2,2,1,1303.24,famous_male06.jpg
4,1,24,2,1,1,1,1364.77,famous_female02.jpg
4,1,25,2,2,2,1,3682.35,famous_male15.jpg
4,2,26,2,2,2,1,1583.87,unknown_female08.jpg
4,2,27,2,4,4,1,2133.46,unknown_female14.jpg
4,1,28,2,2,2,1,1306.98,famous_female11.jpg
4,2,29,1,4,4,1,2479.25,unknown_male07.jpg
4,1,30,2,1,1,1,1374.07,famous_female06.jpg
4,1,31,2,4,4,1,1283.62,famous_male01.jpg
4,1,32,1,3,3,1,2593.19,famous_male02.jpg
4,2,33,1,3,3,1,3246.74,unknown_male05.jpg
4,1,34,2,1,1,1,1604.3,famous_male05.jpg
4,2,35,1,4,4,1,1201.85,unknown_female18.jpg
4,1,36,2,4,4,1,1375.4,famous_female04.jpg
4,2,37,2,2,2,1,1396.99,unknown_male20.jpg
4,2,38,2,3,3,1,1658.52,unknown_male01.jpg
4,2,39,2,2,2,1,1968.05,unknown_male11.jpg
4,1,40,1,1,1,1,1157.61,famous_male03.jpg
4,1,41,1,3,3,1,1035.18,famous_female12.jpg
4,2,42,1,3,3,1,1672.72,unknown_male06.jpg
4,2,43,2,4,4,1,1102.23,unknown_male09.jpg
4,2,44,2,3,3,1,1867.82,unknown_female20.jpg
4,2,45,1,2,2,1,1401.37,unknown_male10.jpg
4,1,46,1,2,2,1,1022.93,famous_male17.jpg
4,2,47,2,1,1,1,1132.49,unknown_female09.jpg
4,1,48,2,1,1,1,1498.05,famous_female09.jpg
4,1,49,1,4,4,1,1183.59,famous_female17.jpg
4,2,50,1,1,1,1,1477.14,unknown_male19.jpg
4,1,51,1,2,2,1,1338.7,famous_female05.jpg
4,1,52,2,1,1,1,1360.25,famous_male19.jpg
4,1,53,2,3,3,1,949.79,famous_male18.jpg
4,2,54,2,1,1,1,1659.37,unknown_male16.jpg
4,2,55,2,1,1,1,1576.91,unknown_female16.jpg
4,2,56,2,4,4,1,1294.45,unknown_female04.jpg
4,1,57,1,3,3,1,1354.27,famous_male12.jpg
4,1,58,1,2,2,1,1111.78,famous_female03.jpg
4,2,59,1,2,2,1,1853.33,unknown_female19.jpg
4,1,60,1,3,3,1,1074.88,famous_male13.jpg
4,1,61,1,4,4,1,944.43,famous_male10.jpg
4,2,62,2,4,4,1,2494.02,unknown_female10.jpg
4,1,63,2,3,3,1,1131.54,famous_female16.jpg
4,1,64,1,1,1,1,1137.1,famous_male08.jpg
4,1,65,1,1,1,1,1198.64,famous_female18.jpg
4,1,66,2,3,3,1,1164.21,famous_male11.jpg
4,2,67,2,2,2,1,961.77,unknown_male18.jpg
4,2,68,1,3,3,1,1039.3,unknown_female03.jpg
4,1,69,1,1,1,1,1596.86,famous_female14.jpg
4,1,70,1,4,4,1,1514.45,famous_female19.jpg
4,2,71,1,1,1,1,1079.97,unknown_female07.jpg
4,2,72,1,2,2,1,1749.54,unknown_female11.jpg
4,1,73,1,4,4,1,1315.07,famous_female01.jpg
4,1,74,1,2,2,1,1320.62,famous_male09.jpg
4,2,75,1,4,4,1,2926.18,unknown_male08.jpg
4,2,76,1,3,3,1,2043.72,unknown_male13.jpg
4,1,77,2,3,3,1,1305.32,famous_male20.jpg
4,1,78,1,3,3,1,1342.84,famous_female10.jpg
4,2,79,1,4,4,1,1932.39,unknown_female01.jpg
4,2,80,1,1,1,1,2393.83,unknown_male17.jpg
5,1,1,1,2,2,1,1141.89,famous_female04.jpg
5,1,2,1,2,2,1,835.5,famous_male12.jpg
5,1,3,2,2,2,1,721.05,famous_male20.jpg
5,2,4,1,1,1,1,646.63,unknown_female13.jpg
5,1,5,1,1,1,1,572.16,famous_male02.jpg
5,2,6,2,1,1,1,528.95,unknown_female06.jpg
5,1,7,1,4,4,1,950.56,famous_female05.jpg
5,2,8,2,2,2,1,1028.12,unknown_male06.jpg
5,1,9,1,1,1,1,857.67,famous_female09.jpg
5,2,10,2,4,4,1,1015.22,unknown_female04.jpg
5,2,11,1,1,1,1,684.62,unknown_female20.jpg
5,2,12,1,4,4,1,1138.33,unknown_female05.jpg
5,1,13,1,1,1,1,1047.89,famous_female10.jpg
5,2,14,1,2,2,1,701.42,unknown_male01.jpg
5,1,15,2,4,4,1,834.93,famous_female18.jpg
5,1,16,1,3,3,1,688.54,famous_female19.jpg
5,1,17,2,2,2,1,694.09,famous_female01.jpg
5,2,18,2,2,2,1,739.65,unknown_female14.jpg
5,1,19,2,3,3,1,697.21,famous_male14.jpg
5,1,20,2,4,4,1,582.75,famous_female13.jpg
5,1,21,2,4,4,1,804.34,famous_male18.jpg
5,1,22,2,1,1,1,1425.84,famous_female11.jpg
5,2,23,1,4,4,1,1047.41,unknown_female15.jpg
5,1,24,1,1,1,1,596.96,famous_male05.jpg
5,2,25,1,3,3,1,834.51,unknown_female12.jpg
5,2,26,2,4,4,1,928.07,unknown_female11.jpg
5,2,27,2,1,1,1,877.63,unknown_female01.jpg
5,1,28,1,3,3,1,819.17,famous_male17.jpg
5,1,29,2,3,3,1,752.73,famous_female20.jpg
5,1,30,2,2,2,1,942.28,famous_male15.jpg
5,2,31,2,2,2,1,699.84,unknown_female09.jpg
5,2,32,1,3,3,1,833.35,unknown_male11.jpg
5,1,33,2,2,2,1,1286.88,famous_male10.jpg
5,2,34,2,2,2,1,628.49,unknown_male10.jpg
5,1,35,2,3,3,1,705.99,famous_female02.jpg
5,1,36,1,1,1,1,743.54,famous_female16.jpg
5,2,37,2,3,3,1,653.16,unknown_male08.jpg
5,2,38,1,4,4,1,618.7,unknown_male07.jpg
5,2,39,2,4,4,1,1032.26,unknown_male12.jpg
5,2,40,1,3,3,1,701.8,unknown_female18.jpg
5,2,41,2,3,3,1,507.38,unknown_female17.jpg
5,2,42,1,1,1,1,1048.94,unknown_male05.jpg
5,2,43,1,3,3,1,1070.47,unknown_male02.jpg
5,1,44,1,4,4,1,652.03,famous_female14.jpg
5,2,45,1,4,4,1,1337.54,unknown_male19.jpg
5,2,46,1,4,4,1,927.14,unknown_female10.jpg
5,2,47,2,1,1,1,1020.7,unknown_male15.jpg
5,2,48,1,3,3,1,1034.24,unknown_male13.jpg
5,1,49,1,3,3,1,551.78,famous_male13.jpg
5,1,50,1,4,4,1,1253.34,famous_male16.jpg
5,1,51,2,4,4,1,1194.86,famous_female17.jpg
5,2,52,1,1,1,1,1392.47,unknown_female19.jpg
5,2,53,1,2,2,1,981.97,unknown_male04.jpg
5,2,54,1,2,2,1,763.55,unknown_female07.jpg
5,1,55,2,3,3,1,1049.14,famous_male03.jpg
5,1,56,2,1,1,1,1302.51,famous_female12.jpg
5,2,57,1,2,2,1,1140.2,unknown_male18.jpg
5,2,58,2,3,3,1,929.8,unknown_male16.jpg
5,1,59,2,4,4,1,967.26,famous_male19.jpg
5,1,60,2,1,1,1,716.86,famous_male06.jpg
5,1,61,1,4,4,1,890.42,famous_female06.jpg
5,1,62,2,2,2,1,631.97,famous_female03.jpg
5,2,63,2,1,1,1,1117.53,unknown_male20.jpg
5,1,64,1,3,3,1,795.08,famous_male08.jpg
5,1,65,1,2,2,1,1048.64,famous_male04.jpg
5,1,66,2,1,1,1,902.18,famous_male07.jpg
5,1,67,1,2,2,1,939.74,famous_female07.jpg
5,1,68,1,4,4,1,937.29,famous_male01.jpg
5,2,69,2,2,2,1,870.84,unknown_male17.jpg
5,2,70,2,3,3,1,692.4,unknown_male09.jpg
5,1,71,2,3,3,1,737.95,famous_male11.jpg
5,2,72,2,4,4,1,879.5,unknown_male14.jpg
5,2,73,1,1,1,1,693,unknown_male03.jpg
5,2,74,2,3,3,1,650.63,unknown_female03.jpg
5,2,75,1,2,2,1,960.17,unknown_female02.jpg
5,1,76,1,3,3,1,1029.78,famous_female15.jpg
5,2,77,2,4,4,1,811.29,unknown_female08.jpg
5,2,78,2,1,1,1,936.82,unknown_female16.jpg
5,1,79,2,1,1,1,734.38,famous_female08.jpg
5,1,80,1,2,2,1,547.87,famous_male09.jpg
6,2,1,2,4,4,1,859.96,unknown_female07.jpg
6,2,2,2,3,3,1,601.5,unknown_female04.jpg
6,2,3,2,2,2,1,423.08,unknown_female18.jpg
6,1,4,1,1,1,1,540.61,famous_male16.jpg
6,1,5,2,3,3,1,458.16,famous_male15.jpg
6,2,6,1,3,3,1,415.7,unknown_male14.jpg
6,2,7,1,4,4,1,373.26,unknown_male10.jpg
6,2,8,1,2,2,1,626.84,unknown_male20.jpg
6,1,9,2,2,2,1,440.36,famous_male11.jpg
6,1,10,1,4,4,1,525.93,famous_female17.jpg
6,2,11,1,4,4,1,411.48,unknown_female09.jpg
6,1,12,1,2,2,1,593.05,famous_male20.jpg
6,2,13,1,3,3,1,589.32,unknown_male06.jpg
6,1,14,1,4,4,1,460.28,famous_male18.jpg
6,1,15,1,1,1,1,497.7,famous_female04.jpg
6,2,16,1,1,1,1,383.25,unknown_male12.jpg
6,1,17,2,4,4,1,556.79,famous_male14.jpg
6,1,18,1,4,4,1,562.35,famous_female08.jpg
6,1,19,2,2,2,1,479.9,famous_female03.jpg
6,2,20,1,2,2,1,477.44,unknown_female06.jpg
6,1,21,1,1,1,1,579,famous_female19.jpg
6,2,22,2,3,3,1,488.55,unknown_male15.jpg
6,2,23,2,1,1,1,614.1,unknown_female01.jpg
6,1,24,2,4,4,1,515.59,famous_female10.jpg
6,2,25,2,4,4,1,449.21,unknown_female13.jpg
6,1,26,1,3,3,1,462.76,famous_male03.jpg
6,2,27,2,3,3,1,548.31,unknown_male16.jpg
6,2,28,1,4,4,1,425.88,unknown_female11.jpg
6,1,29,2,2,2,1,551.42,famous_female20.jpg
6,2,30,1,4,4,1,404.95,unknown_male13.jpg
6,2,31,1,1,1,1,570.54,unknown_female14.jpg
6,2,32,2,1,1,1,416.08,unknown_male03.jpg
6,1,33,1,3,3,1,565.63,famous_female06.jpg
6,2,34,2,4,4,1,467.19,unknown_male11.jpg
6,2,35,2,1,1,1,600.74,unknown_female08.jpg
6,2,36,2,3,3,1,502.24,unknown_female17.jpg
6,1,37,2,3,3,1,459.85,famous_male17.jpg
6,1,38,1,1,1,1,489.4,famous_female16.jpg
6,2,39,2,2,2,1,398.95,unknown_male08.jpg
6,1,40,2,1,1,1,548.5,famous_male19.jpg
6,1,41,2,1,1,1,658.09,famous_female11.jpg
6,2,42,1,2,2,1,367.61,unknown_male02.jpg
6,2,43,1,1,1,1,493.18,unknown_male19.jpg
6,2,44,2,1,1,1,474.74,unknown_male05.jpg
6,1,45,2,1,1,1,552.27,famous_female18.jpg
6,1,46,2,2,2,1,301.82,famous_male07.jpg
6,2,47,1,1,1,1,683.38,unknown_female19.jpg
6,1,48,1,3,3,1,728.94,famous_male05.jpg
6,1,49,2,4,4,1,390.5,famous_male04.jpg
6,1,50,2,3,3,1,500.08,famous_male10.jpg
6,2,51,1,2,2,1,361.61,unknown_female12.jpg
6,2,52,1,4,4,1,431.14,unknown_female03.jpg
6,1,53,2,4,4,1,604.69,famous_female13.jpg
6,2,54,2,1,1,1,474.24,unknown_female15.jpg
6,2,55,2,4,4,1,503.82,unknown_female16.jpg
6,1,56,1,3,3,1,437.35,famous_female01.jpg
6,2,57,1,3,3,1,506.9,unknown_male18.jpg
6,1,58,1,2,2,1,584.44,famous_male09.jpg
6,1,59,2,3,3,1,438.02,famous_female07.jpg
6,1,60,1,4,4,1,363.55,famous_male06.jpg
6,1,61,1,1,1,1,633.15,famous_male08.jpg
6,2,62,1,2,2,1,502.72,unknown_male07.jpg
6,1,63,1,4,4,1,468.25,famous_female09.jpg
6,1,64,1,3,3,1,473.81,famous_male13.jpg
6,1,65,1,2,2,1,543.41,famous_female12.jpg
6,1,66,1,2,2,1,460.88,famous_female05.jpg
6,1,67,2,3,3,1,450.43,famous_female15.jpg
6,2,68,1,1,1,1,639.99,unknown_female10.jpg
6,2,69,1,3,3,1,541.54,unknown_female20.jpg
6,1,70,2,1,1,1,667.1,famous_male12.jpg
6,1,71,2,1,1,1,472.64,famous_female14.jpg
6,1,72,1,2,2,1,518.19,famous_male01.jpg
6,1,73,2,4,4,1,563.77,famous_female02.jpg
6,1,74,2,2,2,1,601.3,famous_male02.jpg
6,2,75,2,2,2,1,446.85,unknown_male17.jpg
6,2,76,2,2,2,1,780.4,unknown_female05.jpg
6,2,77,2,4,4,1,473.96,unknown_male04.jpg
6,2,78,2,3,3,1,567.54,unknown_male01.jpg
6,2,79,1,3,3,1,517.07,unknown_female02.jpg
6,2,80,2,2,2,1,402.62,unknown_male09.jpg
7,2,1,2,2,2,1,709.16,unknown_male20.jpg
7,1,2,2,3,3,1,818.71,famous_male10.jpg
7,2,3,2,2,2,1,688.33,unknown_male04.jpg
7,2,4,1,2,2,1,661.84,unknown_female15.jpg
7,1,5,1,1,1,1,579.43,famous_male17.jpg
7,2,6,1,2,2,1,649,unknown_male01.jpg
7,2,7,2,2,2,1,590.5,unknown_male16.jpg
7,1,8,2,2,2,1,588.1,famous_female12.jpg
7,2,9,2,1,1,1,553.66,unknown_female05.jpg
7,1,10,2,2,2,1,503.2,famous_male19.jpg
7,2,11,1,4,4,1,908.74,unknown_male14.jpg
7,2,12,2,1,1,1,802.31,unknown_male17.jpg
7,1,13,1,2,2,1,735.77,famous_female16.jpg
7,1,14,1,2,2,1,893.38,famous_male12.jpg
7,1,15,2,2,2,1,770.98,famous_male04.jpg
7,1,16,1,2,2,1,912.52,famous_male18.jpg
7,2,17,1,3,3,1,718,unknown_male12.jpg
7,2,18,2,4,4,1,851.56,unknown_male11.jpg
7,1,19,2,2,2,1,1041.15,famous_male15.jpg
7,1,20,2,1,1,1,654.73,famous_female04.jpg
7,2,21,1,1,1,1,796.3,unknown_male08.jpg
7,2,22,2,3,3,1,969.85,unknown_male18.jpg
7,2,23,2,4,4,1,791.4,unknown_female01.jpg
7,1,24,1,1,1,1,716.96,famous_female05.jpg
7,2,25,1,1,1,1,682.46,unknown_female08.jpg
7,2,26,2,3,3,1,887.98,unknown_female04.jpg
7,2,27,2,3,3,1,885.6,unknown_male09.jpg
7,2,28,2,4,4,1,795.13,unknown_male19.jpg
7,1,29,1,2,2,1,912.66,famous_female11.jpg
7,1,30,1,1,1,1,798.26,famous_female07.jpg
7,2,31,1,2,2,1,555.81,unknown_female09.jpg
7,2,32,2,3,3,1,793.33,unknown_female06.jpg
7,1,33,1,1,1,1,830.87,famous_male16.jpg
7,1,34,2,2,2,1,508.49,famous_female17.jpg
7,1,35,1,3,3,1,674.03,famous_male08.jpg
7,1,36,1,3,3,1,703.53,famous_female01.jpg
7,2,37,2,1,1,1,469.13,unknown_female18.jpg
7,1,38,1,2,2,1,658.68,famous_male11.jpg
7,1,39,2,1,1,1,568.2,famous_male13.jpg
7,1,40,2,3,3,1,749.77,famous_female15.jpg
7,1,41,1,4,4,1,771.31,famous_female09.jpg
7,1,42,1,4,4,1,1080.9,famous_male06.jpg
7,1,43,2,4,4,1,590.45,famous_female20.jpg
7,1,44,1,4,4,1,636.01,famous_female19.jpg
7,1,45,1,3,3,1,665.52,famous_female06.jpg
7,2,46,1,3,3,1,647.07,unknown_female19.jpg
7,2,47,1,4,4,1,980.66,unknown_female16.jpg
7,2,48,1,2,2,1,938.15,unknown_male13.jpg
7,2,49,1,3,3,1,767.71,unknown_male07.jpg
7,2,50,2,4,4,1,853.32,unknown_female02.jpg
7,2,51,2,4,4,1,954.83,unknown_female13.jpg
7,1,52,1,1,1,1,848.42,famous_female03.jpg
7,1,53,2,4,4,1,581.98,famous_male03.jpg
7,2,54,1,4,4,1,587.53,unknown_female14.jpg
7,1,55,2,4,4,1,505.08,famous_male14.jpg
7,2,56,2,3,3,1,1614.65,unknown_male05.jpg
7,2,57,1,1,1,1,684.19,unknown_female17.jpg
7,1,58,2,3,3,1,681.78,famous_male20.jpg
7,1,59,1,4,4,1,711.26,famous_female13.jpg
7,1,60,1,3,3,1,1332.85,famous_male01.jpg
7,1,61,2,1,1,1,642.4,famous_female18.jpg
7,1,62,2,1,1,1,855.88,famous_male05.jpg
7,2,63,1,3,3,1,781.51,unknown_male10.jpg
7,2,64,1,1,1,1,1055.2,unknown_male02.jpg
7,1,65,1,4,4,1,1212.72,famous_male07.jpg
7,1,66,2,1,1,1,786.27,famous_female14.jpg
7,2,67,2,1,1,1,575.83,unknown_female03.jpg
7,1,68,2,3,3,1,621.39,famous_female10.jpg
7,1,69,1,3,3,1,562.91,famous_male09.jpg
7,2,70,1,4,4,1,744.49,unknown_male15.jpg
7,2,71,1,4,4,1,782.05,unknown_female11.jpg
7,2,72,1,1,1,1,867.56,unknown_female10.jpg
7,2,73,2,2,2,1,1121.17,unknown_female20.jpg
7,1,74,2,4,4,1,1174.7,famous_female08.jpg
7,1,75,2,3,3,1,1276.26,famous_male02.jpg
7,2,76,1,3,3,1,601.8,unknown_female12.jpg
7,2,77,2,2,2,1,1231.34,unknown_female07.jpg
7,2,78,2,1,1,1,836.92,unknown_male03.jpg
7,1,79,2,4,4,1,1098.48,famous_female02.jpg
7,2,80,1,2,2,1,1440.03,unknown_male06.jpg
8,1,1,2,1,1,1,1790.04,famous_female09.jpg
8,1,2,1,4,4,1,1163.59,famous_female07.jpg
8,2,3,2,2,2,1,1233.15,unknown_male09.jpg
8,1,4,2,4,4,1,1014.73,famous_female15.jpg
8,2,5,1,1,1,1,860.23,unknown_female18.jpg
8,1,6,2,4,4,1,1041.06,famous_male16.jpg
8,1,7,1,2,2,1,750.65,famous_female05.jpg
8,2,8,1,2,2,1,804.21,unknown_male07.jpg
8,2,9,1,1,1,1,1081.76,unknown_female17.jpg
8,2,10,1,2,2,1,807.31,unknown_male18.jpg
8,1,11,1,4,4,1,884.9,famous_male19.jpg
8,1,12,1,2,2,1,1194.42,famous_female02.jpg
8,2,13,2,1,1,1,759.97,unknown_male12.jpg
8,1,14,1,1,1,1,565.54,famous_female10.jpg
8,1,15,2,4,4,1,915.08,famous_male07.jpg
8,2,16,1,1,1,1,720.63,unknown_male16.jpg
8,2,17,2,1,1,1,629.42,unknown_female11.jpg
8,1,18,1,1,1,1,779.03,famous_male01.jpg
8,1,19,1,3,3,1,1016.58,famous_male14.jpg
8,1,20,1,2,2,1,1166.14,famous_male20.jpg
8,1,21,1,3,3,1,1043.72,famous_female14.jpg
8,2,22,1,1,1,1,1081.25,unknown_male06.jpg
8,2,23,2,1,1,1,1086.81,unknown_female14.jpg
8,2,24,1,2,2,1,596.35,unknown_female06.jpg
8,2,25,2,3,3,1,817.9,unknown_female16.jpg
8,2,26,1,3,3,1,1335.49,unknown_male14.jpg
8,2,27,1,1,1,1,1373.02,unknown_female07.jpg
8,1,28,2,4,4,1,1026.5,famous_female19.jpg
8,2,29,1,3,3,1,1512.11,unknown_male10.jpg
8,2,30,1,2,2,1,797.69,unknown_female19.jpg
8,1,31,2,3,3,1,979.22,famous_male12.jpg
8,1,32,1,4,4,1,1120.78,famous_female11.jpg
8,2,33,2,3,3,1,1214.27,unknown_male15.jpg
8,1,34,1,3,3,1,1019.86,famous_male10.jpg
8,2,35,1,3,3,1,705.46,unknown_male02.jpg
8,2,36,1,4,4,1,775,unknown_male04.jpg
8,1,37,1,4,4,1,948.48,famous_male17.jpg
8,1,38,1,2,2,1,794.06,famous_male06.jpg
8,2,39,1,3,3,1,831.62,unknown_female08.jpg
8,1,40,2,2,2,1,789.2,famous_male18.jpg
8,2,41,2,2,2,1,946.75,unknown_female13.jpg
8,2,42,2,4,4,1,952.3,unknown_male08.jpg
8,1,43,1,1,1,1,781.85,famous_male08.jpg
8,1,44,2,3,3,1,747.42,famous_female12.jpg
8,2,45,2,3,3,1,832.96,unknown_male11.jpg
8,1,46,1,4,4,1,654.52,famous_female06.jpg
8,1,47,1,2,2,1,788.02,famous_male02.jpg
8,2,48,2,1,1,1,929.62,unknown_female01.jpg
8,1,49,2,1,1,1,1143.18,famous_male15.jpg
8,1,50,2,2,2,1,756.72,famous_male04.jpg
8,2,51,1,3,3,1,954.3,unknown_female12.jpg
8,2,52,2,2,2,1,1111.77,unknown_male20.jpg
8,2,53,2,4,4,1,805.4,unknown_male13.jpg
8,2,54,2,2,2,1,714.95,unknown_female02.jpg
8,1,55,2,3,3,1,600.49,famous_male11.jpg
8,1,56,2,2,2,1,598.04,famous_male09.jpg
8,2,57,1,4,4,1,1035.61,unknown_female05.jpg
8,1,58,1,1,1,1,1169.05,famous_female13.jpg
8,2,59,2,4,4,1,902.7,unknown_female15.jpg
8,1,60,2,3,3,1,1028.26,famous_male13.jpg
8,1,61,2,1,1,1,969.81,famous_female03.jpg
8,2,62,2,2,2,1,855.36,unknown_male19.jpg
8,2,63,2,1,1,1,580.93,unknown_male03.jpg
8,2,64,1,2,2,1,722.46,unknown_male17.jpg
8,1,65,2,2,2,1,1216.04,famous_female04.jpg
8,2,66,2,4,4,1,965.58,unknown_female04.jpg
8,1,67,2,1,1,1,875.07,famous_female16.jpg
8,2,68,1,4,4,1,816.68,unknown_male01.jpg
8,1,69,2,2,2,1,734.24,famous_female20.jpg
8,2,70,1,4,4,1,787.73,unknown_female10.jpg
8,1,71,2,4,4,1,649.36,famous_female01.jpg
8,2,72,2,3,3,1,798.89,unknown_female09.jpg
8,1,73,2,3,3,1,748.47,famous_female08.jpg
8,2,74,2,4,4,1,785.96,unknown_female20.jpg
8,1,75,1,1,1,1,1135.46,famous_female17.jpg
8,1,76,2,1,1,1,981.04,famous_male03.jpg
8,2,77,2,3,3,1,930.67,unknown_male05.jpg
8,1,78,1,3,3,1,888.21,famous_female18.jpg
8,2,79,1,4,4,1,781.74,unknown_female03.jpg
8,1,80,1,3,3,1,843.26,famous_male05.jpg
9,1,1,1,4,4,1,706.23,famous_female03.jpg
9,2,2,1,3,3,1,551.83,unknown_female08.jpg
9,1,3,2,4,4,1,1173.4,famous_female07.jpg
9,2,4,2,3,3,1,674.95,unknown_male07.jpg
9,2,5,2,2,2,1,984.52,unknown_female19.jpg
9,1,6,1,3,3,1,566.04,famous_male12.jpg
9,1,7,2,4,4,1,827.6,famous_male04.jpg
9,2,8,1,3,3,1,721.16,unknown_male14.jpg
9,1,9,2,2,2,1,1118.67,famous_male10.jpg
9,1,10,2,3,3,1,596.27,famous_male03.jpg
9,2,11,1,4,4,1,737.73,unknown_female13.jpg
9,2,12,2,3,3,1,951.36,unknown_female15.jpg
9,1,13,1,2,2,1,836.89,famous_female02.jpg
9,1,14,2,3,3,1,818.44,famous_male16.jpg
9,2,15,1,1,1,1,831.97,unknown_female09.jpg
9,2,16,1,4,4,1,1085.55,unknown_female10.jpg
9,2,17,2,1,1,1,1011.12,unknown_female01.jpg
9,2,18,2,2,2,1,680.66,unknown_male05.jpg
9,2,19,1,4,4,1,798.25,unknown_male09.jpg
9,2,20,1,1,1,1,611.76,unknown_female05.jpg
9,1,21,2,4,4,1,801.37,famous_male09.jpg
9,1,22,1,4,4,1,686.94,famous_female16.jpg
9,2,23,2,4,4,1,956.46,unknown_female11.jpg
9,1,24,2,2,2,1,841.95,famous_female20.jpg
9,1,25,1,3,3,1,855.57,famous_male01.jpg
9,1,26,2,1,1,1,829.12,famous_female09.jpg
9,2,27,1,2,2,1,650.68,unknown_male10.jpg
9,1,28,1,4,4,1,648.22,famous_male08.jpg
9,1,29,1,1,1,1,741.8,famous_male02.jpg
9,1,30,1,1,1,1,955.32,famous_female05.jpg
9,1,31,2,2,2,1,1016.88,famous_male06.jpg
9,2,32,2,1,1,1,766.44,unknown_male06.jpg
9,2,33,2,2,2,1,659.99,unknown_male12.jpg
9,1,34,1,2,2,1,673.55,famous_male05.jpg
9,2,35,2,3,3,1,695.1,unknown_female03.jpg
9,2,36,1,1,1,1,572.64,unknown_female16.jpg
9,2,37,2,4,4,1,778.2,unknown_male17.jpg
9,1,38,2,1,1,1,903.75,famous_female11.jpg
9,2,39,2,1,1,1,597.31,unknown_female02.jpg
9,1,40,1,2,2,1,632.3,famous_male13.jpg
9,2,41,2,2,2,1,661.93,unknown_female18.jpg
9,1,42,1,3,3,1,859.49,famous_female15.jpg
9,1,43,2,2,2,1,633.05,famous_male14.jpg
9,2,44,1,2,2,1,814.6,unknown_male20.jpg
9,2,45,1,3,3,1,540.14,unknown_male01.jpg
9,1,46,1,2,2,1,553.66,famous_female04.jpg
9,2,47,2,4,4,1,655.25,unknown_male04.jpg
9,2,48,1,2,2,1,804.79,unknown_female04.jpg
9,1,49,2,3,3,1,458.32,famous_female01.jpg
9,1,50,2,4,4,1,655.91,famous_female19.jpg
9,1,51,1,4,4,1,509.43,famous_female14.jpg
9,1,52,2,1,1,1,779.02,famous_male19.jpg
9,2,53,2,1,1,1,504.57,unknown_male19.jpg
9,2,54,2,3,3,1,462.12,unknown_male15.jpg
9,1,55,1,2,2,1,595.7,famous_male17.jpg
9,2,56,1,2,2,1,873.22,unknown_male16.jpg
9,2,57,1,3,3,1,862.7,unknown_female20.jpg
9,2,58,1,4,4,1,700.29,unknown_male11.jpg
9,2,59,2,4,4,1,649.88,unknown_female14.jpg
9,2,60,1,1,1,1,639.36,unknown_male13.jpg
9,1,61,2,3,3,1,628.97,famous_female18.jpg
9,2,62,2,4,4,1,922.53,unknown_female06.jpg
9,1,63,2,1,1,1,728.09,famous_female12.jpg
9,1,64,1,4,4,1,701.65,famous_male11.jpg
9,1,65,1,1,1,1,451.19,famous_male07.jpg
9,2,66,2,3,3,1,624.74,unknown_male18.jpg
9,1,67,1,1,1,1,734.3,famous_female06.jpg
9,1,68,2,1,1,1,475.77,famous_male20.jpg
9,2,69,1,1,1,1,809.41,unknown_male08.jpg
9,1,70,2,3,3,1,622.96,famous_male15.jpg
9,1,71,2,2,2,1,548.51,famous_female13.jpg
9,1,72,1,1,1,1,658.01,famous_female17.jpg
9,1,73,1,3,3,1,639.59,famous_male18.jpg
9,2,74,1,4,4,1,533.17,unknown_female07.jpg
9,2,75,2,2,2,1,498.69,unknown_male02.jpg
9,1,76,1,3,3,1,1056.24,famous_female10.jpg
9,2,77,2,1,1,1,845.81,unknown_female17.jpg
9,2,78,1,2,2,1,699.34,unknown_female12.jpg
9,2,79,1,3,3,1,864.89,unknown_male03.jpg
9,1,80,2,4,4,1,734.5,famous_female08.jpg
10,1,1,2,1,1,1,1777.48,famous_female09.jpg
10,1,2,2,4,4,1,1375.05,famous_male13.jpg
10,2,3,1,2,2,1,1436.6,unknown_male11.jpg
10,1,4,2,1,1,1,1522.11,famous_male11.jpg
10,2,5,2,4,4,1,1119.71,unknown_female12.jpg
10,1,6,1,3,3,1,1156.5,famous_male20.jpg
10,2,7,1,1,1,1,1410.11,unknown_male13.jpg
10,1,8,2,3,3,1,1319.61,famous_male16.jpg
10,1,9,2,4,4,1,1309.16,famous_female12.jpg
10,1,10,1,2,2,1,1666.8,famous_male19.jpg
10,2,11,2,3,3,1,1512.29,unknown_male19.jpg
10,1,12,1,1,1,1,1773.91,famous_female13.jpg
10,2,13,1,1,1,1,1611.42,unknown_male12.jpg
10,2,14,2,2,2,1,1361,unknown_male02.jpg
10,2,15,1,4,4,1,1414.53,unknown_female20.jpg
10,2,16,1,2,2,1,1484.09,unknown_male04.jpg
10,2,17,1,2,2,1,1577.64,unknown_female15.jpg
10,2,18,2,3,3,1,1367.19,unknown_male03.jpg
10,2,19,2,2,2,1,1708.75,unknown_male10.jpg
10,1,20,1,1,1,1,1538.32,famous_male05.jpg
10,2,21,1,2,2,1,1735.85,unknown_female05.jpg
10,1,22,2,2,2,1,1925.41,famous_female01.jpg
10,1,23,2,3,3,1,1634.95,famous_male10.jpg
10,2,24,2,1,1,1,1480.51,unknown_male08.jpg
10,2,25,2,3,3,1,1422.02,unknown_male20.jpg
10,1,26,2,1,1,1,1411.61,famous_female03.jpg
10,1,27,1,4,4,1,1089.19,famous_female08.jpg
10,2,28,2,1,1,1,1470.73,unknown_female03.jpg
10,1,29,1,4,4,1,1356.23,famous_male12.jpg
10,1,30,1,3,3,1,1673.85,famous_male17.jpg
10,1,31,1,4,4,1,1447.35,famous_female16.jpg
10,1,32,1,2,2,1,1188.91,famous_male02.jpg
10,1,33,2,4,4,1,1866.45,famous_female07.jpg
10,1,34,1,4,4,1,1392.03,famous_male07.jpg
10,1,35,1,3,3,1,1709.59,famous_male06.jpg
10,2,36,2,2,2,1,1467.14,unknown_female08.jpg
10,1,37,2,3,3,1,1408.7,famous_male18.jpg
10,2,38,1,1,1,1,1718.28,unknown_female18.jpg
10,2,39,1,4,4,1,1227.74,unknown_female14.jpg
10,2,40,1,2,2,1,1265.35,unknown_male09.jpg
10,2,41,1,3,3,1,1630.85,unknown_male01.jpg
10,1,42,2,1,1,1,1036.46,famous_male01.jpg
10,2,43,1,4,4,1,2026.03,unknown_male16.jpg
10,2,44,2,3,3,1,1167.58,unknown_female13.jpg
10,2,45,2,1,1,1,917.15,unknown_female17.jpg
10,1,46,2,2,2,1,1218.61,famous_male03.jpg
10,1,47,1,3,3,1,1440.18,famous_female18.jpg
10,2,48,1,3,3,1,1277.79,unknown_male14.jpg
10,1,49,1,2,2,1,1235.35,famous_male04.jpg
10,1,50,1,3,3,1,1544.82,famous_female04.jpg
10,1,51,2,1,1,1,1182.44,famous_female15.jpg
10,1,52,2,2,2,1,1140,famous_female14.jpg
10,1,53,2,2,2,1,1233.54,famous_male14.jpg
10,2,54,2,4,4,1,975.1,unknown_female16.jpg
10,2,55,2,4,4,1,860.59,unknown_male18.jpg
10,2,56,1,1,1,1,914.19,unknown_female01.jpg
10,1,57,1,1,1,1,1111.75,famous_male09.jpg
10,1,58,2,3,3,1,1085.32,famous_female19.jpg
10,2,59,2,4,4,1,906.87,unknown_male17.jpg
10,2,60,1,4,4,1,912.38,unknown_female02.jpg
10,1,61,2,2,2,1,1517.96,famous_male08.jpg
10,1,62,1,1,1,1,1907.49,famous_female05.jpg
10,2,63,2,1,1,1,1545.07,unknown_male05.jpg
10,2,64,1,3,3,1,758.62,unknown_female19.jpg
10,1,65,1,2,2,1,740.18,famous_female20.jpg
10,1,66,1,1,1,1,785.76,famous_female10.jpg
10,2,67,2,2,2,1,1151.14,unknown_female07.jpg
10,1,68,1,4,4,1,1228.84,famous_female17.jpg
10,2,69,1,3,3,1,882.39,unknown_female10.jpg
10,2,70,2,1,1,1,903.94,unknown_female11.jpg
10,2,71,1,1,1,1,1021.51,unknown_female06.jpg
10,1,72,2,3,3,1,1091.07,famous_female02.jpg
10,2,73,2,2,2,1,1144.6,unknown_male07.jpg
10,2,74,1,3,3,1,1454.17,unknown_male15.jpg
10,1,75,2,4,4,1,883.72,famous_male15.jpg
10,1,76,1,2,2,1,793.26,famous_female06.jpg
10,2,77,1,4,4,1,830.75,unknown_male06.jpg
10,2,78,2,4,4,1,676.38,unknown_female09.jpg
10,2,79,2,3,3,1,881.92,unknown_female04.jpg
10,1,80,2,4,4,1,791.48,famous_female11.jpg
11,2,1,2,4,4,1,1904.12,unknown_female03.jpg
11,2,2,2,4,4,1,421.71,unknown_female12.jpg
11,1,3,1,4,4,1,443.23,famous_female19.jpg
11,1,4,2,4,4,1,376.82,famous_female09.jpg
11,1,5,2,4,4,1,422.33,famous_male08.jpg
11,1,6,2,4,4,1,515.9,famous_female06.jpg
11,1,7,1,2,2,1,1033.47,famous_male20.jpg
11,1,8,1,2,2,1,751.03,famous_male05.jpg
11,2,9,1,2,2,1,564.58,unknown_female16.jpg
11,1,10,2,1,1,1,554.14,famous_male18.jpg
11,2,11,2,2,2,1,527.71,unknown_male18.jpg
11,1,12,1,4,4,1,421.25,famous_male10.jpg
11,2,13,1,3,3,1,730.79,unknown_male03.jpg
11,2,14,1,3,3,1,848.35,unknown_male07.jpg
11,1,15,1,3,3,1,757.9,famous_male01.jpg
11,1,16,2,2,2,1,755.46,famous_male16.jpg
11,2,17,1,2,2,1,713.01,unknown_male10.jpg
11,1,18,1,3,3,1,678.56,famous_male19.jpg
11,1,19,1,4,4,1,836.07,famous_female13.jpg
11,2,20,2,1,1,1,753.63,unknown_female18.jpg
11,1,21,1,1,1,1,535.21,famous_female12.jpg
11,1,22,2,3,3,1,516.76,famous_male06.jpg
11,1,23,1,2,2,1,402.26,famous_male17.jpg
11,1,24,2,1,1,1,863.88,famous_female02.jpg
11,2,25,1,4,4,1,533.39,unknown_female20.jpg
11,2,26,1,3,3,1,418.98,unknown_female17.jpg
11,2,27,1,1,1,1,656.53,unknown_female07.jpg
11,1,28,1,3,3,1,646.08,famous_female11.jpg
11,1,29,1,2,2,1,731.64,famous_female10.jpg
11,2,30,1,4,4,1,697.19,unknown_male02.jpg
11,1,31,2,3,3,1,382.74,famous_male09.jpg
11,2,32,1,3,3,1,348.26,unknown_female15.jpg
11,1,33,1,1,1,1,865.85,famous_male02.jpg
11,1,34,1,4,4,1,711.4,famous_male11.jpg
11,2,35,1,2,2,1,540.98,unknown_male20.jpg
11,2,36,2,2,2,1,362.52,unknown_male16.jpg
11,1,37,2,4,4,1,743.99,famous_male12.jpg
11,1,38,1,3,3,1,437.61,famous_female17.jpg
11,2,39,2,3,3,1,899.17,unknown_female01.jpg
11,1,40,2,2,2,1,520.72,famous_male04.jpg
11,1,41,1,1,1,1,1126.27,famous_female14.jpg
11,1,42,2,3,3,1,459.75,famous_female20.jpg
11,2,43,1,4,4,1,633.39,unknown_female14.jpg
11,2,44,1,1,1,1,854.93,unknown_female10.jpg
11,1,45,2,1,1,1,716.48,famous_female05.jpg
11,1,46,1,4,4,1,658.04,famous_female15.jpg
11,1,47,2,2,2,1,431.59,famous_female16.jpg
11,2,48,2,3,3,1,341.14,unknown_male15.jpg
11,2,49,2,1,1,1,898.73,unknown_female11.jpg
11,2,50,2,1,1,1,744.24,unknown_female05.jpg
11,2,51,2,4,4,1,645.83,unknown_male06.jpg
11,1,52,1,1,1,1,563.35,famous_male14.jpg
11,2,53,2,3,3,1,448.91,unknown_male11.jpg
11,2,54,1,2,2,1,374.46,unknown_male01.jpg
11,2,55,2,3,3,1,475.98,unknown_female04.jpg
11,2,56,1,1,1,1,793.56,unknown_male19.jpg
11,2,57,2,1,1,1,703.11,unknown_male13.jpg
11,1,58,1,3,3,1,732.61,famous_male13.jpg
11,2,59,2,1,2,0,882.19,unknown_male14.jpg
11,2,60,2,4,4,1,911.75,unknown_female06.jpg
11,1,61,1,2,2,1,565.33,famous_female18.jpg
11,1,62,2,2,2,1,474.92,famous_female01.jpg
11,2,63,1,1,1,1,728.44,unknown_male09.jpg
11,1,64,2,1,1,1,1366,famous_male03.jpg
11,2,65,2,2,2,1,499.51,unknown_female08.jpg
11,2,66,1,4,4,1,809.1,unknown_male04.jpg
11,1,67,1,1,1,1,990.65,famous_female04.jpg
11,2,68,2,2,2,1,636.21,unknown_female02.jpg
11,2,69,1,3,3,1,457.76,unknown_male17.jpg
11,2,70,2,4,4,1,735.29,unknown_male05.jpg
11,2,71,1,2,2,1,996.82,unknown_female19.jpg
11,2,72,1,1,1,1,1818.41,unknown_female13.jpg
11,2,73,2,2,2,1,1119.97,unknown_male08.jpg
11,1,74,2,3,3,1,821.48,famous_female07.jpg
11,1,75,2,3,3,1,539.07,famous_male15.jpg
11,1,76,2,2,2,1,544.64,famous_male07.jpg
11,1,77,2,1,1,1,838.19,famous_female08.jpg
11,2,78,1,4,4,1,483.73,unknown_female09.jpg
11,1,79,2,4,4,1,745.25,famous_female03.jpg
11,2,80,2,3,3,1,494.84,unknown_male12.jpg
12,1,1,2,4,4,1,1996.99,famous_female07.jpg
12,1,2,1,3,3,1,1154.54,famous_female01.jpg
12,2,3,1,3,3,1,1856.12,unknown_female14.jpg
12,2,4,2,4,4,1,1213.65,unknown_female09.jpg
12,2,5,1,1,1,1,1211.2,unknown_female19.jpg
12,1,6,1,4,4,1,1136.75,famous_female04.jpg
12,2,7,2,4,4,1,1558.3,unknown_male06.jpg
12,1,8,1,4,4,1,1051.9,famous_female03.jpg
12,1,9,2,3,3,1,961.44,famous_female13.jpg
12,2,10,2,1,1,1,2158.97,unknown_female08.jpg
12,1,11,1,3,3,1,1868.51,famous_female09.jpg
12,2,12,1,4,4,1,1554.08,unknown_female05.jpg
12,2,13,2,2,2,1,2015.62,unknown_male11.jpg
12,2,14,1,4,4,1,2101.2,unknown_female16.jpg
12,1,15,2,1,1,1,3026.72,famous_female15.jpg
12,1,16,2,2,2,1,2048.28,famous_female06.jpg
12,1,17,2,1,1,1,1317.82,famous_female18.jpg
12,2,18,2,1,1,1,1675.38,unknown_female10.jpg
12,1,19,2,2,2,1,2296.93,famous_male13.jpg
12,1,20,1,3,3,1,1334.5,famous_male20.jpg
12,2,21,1,3,3,1,1596.05,unknown_male17.jpg
12,2,22,2,3,3,1,2209.59,unknown_female04.jpg
12,2,23,1,4,4,1,1503.11,unknown_male12.jpg
12,2,24,2,4,4,1,1380.77,unknown_male14.jpg
12,2,25,1,2,2,1,1626.21,unknown_male16.jpg
12,1,26,2,2,2,1,1759.81,famous_female11.jpg
12,2,27,2,2,2,1,2213.37,unknown_male20.jpg
12,2,28,1,1,1,1,1850.91,unknown_female06.jpg
12,1,29,1,2,2,1,2416.46,famous_male16.jpg
12,1,30,1,1,1,1,1814.02,famous_male10.jpg
12,2,31,1,1,1,1,1803.59,unknown_male15.jpg
12,1,32,2,1,1,1,1969.13,famous_male07.jpg
12,2,33,1,4,4,1,2318.68,unknown_female15.jpg
12,2,34,2,2,2,1,2012.23,unknown_male05.jpg
12,1,35,1,1,1,1,1921.78,famous_female16.jpg
12,1,36,1,2,2,1,1847.33,famous_male08.jpg
12,1,37,2,2,2,1,1332.89,famous_male12.jpg
12,2,38,2,2,2,1,2306.44,unknown_female11.jpg
12,1,39,2,3,3,1,1759.99,famous_male01.jpg
12,2,40,1,2,2,1,1925.57,unknown_female13.jpg
12,1,41,1,2,2,1,1955.1,famous_female19.jpg
12,1,42,1,1,1,1,1576.65,famous_male03.jpg
12,1,43,1,3,3,1,2574.21,famous_male19.jpg
12,2,44,2,3,3,1,2419.78,unknown_male13.jpg
12,1,45,2,1,1,1,1657.33,famous_female17.jpg
12,1,46,2,3,3,1,2494.87,famous_female10.jpg
12,2,47,1,1,1,1,1676.42,unknown_male03.jpg
12,2,48,2,3,3,1,1137.97,unknown_male19.jpg
12,2,49,2,4,4,1,1247.53,unknown_female18.jpg
12,1,50,2,3,3,1,1541.08,famous_male17.jpg
12,1,51,1,3,3,1,2250.66,famous_male05.jpg
12,2,52,1,2,2,1,2184.21,unknown_male02.jpg
12,1,53,2,1,1,1,1621.73,famous_male18.jpg
12,1,54,2,4,4,1,1723.29,famous_male14.jpg
12,2,55,2,1,1,1,2104.85,unknown_female07.jpg
12,2,56,1,2,2,1,1798.42,unknown_male07.jpg
12,2,57,2,3,3,1,1779.94,unknown_female03.jpg
12,2,58,2,2,2,1,1641.51,unknown_female17.jpg
12,2,59,1,2,2,1,1855.07,unknown_female20.jpg
12,2,60,1,4,4,1,1668.62,unknown_male09.jpg
12,1,61,2,2,2,1,1290.18,famous_male04.jpg
12,1,62,1,4,4,1,2175.75,famous_male11.jpg
12,1,63,1,2,2,1,2077.3,famous_male15.jpg
12,1,64,2,4,4,1,1674.83,famous_female02.jpg
12,1,65,2,3,3,1,1744.36,famous_male09.jpg
12,1,66,1,1,1,1,2037.93,famous_female14.jpg
12,2,67,2,3,3,1,2539.48,unknown_male10.jpg
12,1,68,2,4,4,1,2713.07,famous_female12.jpg
12,2,69,1,3,3,1,1838.59,unknown_male08.jpg
12,2,70,1,3,3,1,1828.14,unknown_male01.jpg
12,1,71,2,4,4,1,2137.68,famous_male02.jpg
12,2,72,2,4,4,1,2111.27,unknown_female02.jpg
12,1,73,1,2,2,1,2124.8,famous_female20.jpg
12,2,74,2,1,1,1,1762.35,unknown_male04.jpg
12,2,75,1,3,3,1,1735.9,unknown_female12.jpg
12,2,76,2,1,1,1,2741.46,unknown_male18.jpg
12,1,77,1,1,1,1,1579.03,famous_female08.jpg
12,1,78,1,4,4,1,952.58,famous_male06.jpg
12,2,79,1,1,1,1,726.12,unknown_female01.jpg
12,1,80,1,4,4,1,1515.67,famous_female05.jpg
13,1,1,2,4,4,1,898.46,famous_female14.jpg
13,2,2,2,2,2,1,1120.02,unknown_female08.jpg
13,1,3,2,4,4,1,1109.64,famous_female08.jpg
13,2,4,1,4,4,1,1203.25,unknown_male10.jpg
13,2,5,1,3,3,1,1248.68,unknown_female12.jpg
13,2,6,2,1,1,1,1101.53,unknown_female11.jpg
13,1,7,1,2,2,1,755.08,famous_female07.jpg
13,1,8,2,1,1,1,1056.7,famous_female15.jpg
13,1,9,2,2,2,1,1006.31,famous_male05.jpg
13,1,10,2,1,1,1,971.83,famous_female09.jpg
13,1,11,2,3,3,1,1113.37,famous_female03.jpg
13,2,12,2,4,4,1,1150.88,unknown_female05.jpg
13,1,13,1,3,3,1,932.46,famous_female20.jpg
13,1,14,2,1,1,1,1146.04,famous_female01.jpg
13,2,15,2,3,3,1,1191.57,unknown_male08.jpg
13,1,16,1,1,1,1,997.06,famous_male20.jpg
13,2,17,1,2,2,1,1114.61,unknown_male18.jpg
13,1,18,2,1,1,1,1168.2,famous_male12.jpg
13,2,19,1,4,4,1,1213.77,unknown_female18.jpg
13,1,20,2,2,2,1,1395.34,famous_female02.jpg
13,1,21,2,2,2,1,1040.85,famous_male15.jpg
13,1,22,1,1,1,1,1438.34,famous_female16.jpg
13,2,23,2,1,1,1,1547.99,unknown_female20.jpg
13,1,24,1,4,4,1,1825.54,famous_male06.jpg
13,2,25,1,1,1,1,1655.09,unknown_male16.jpg
13,1,26,1,3,3,1,1908.62,famous_male16.jpg
13,1,27,2,2,2,1,1722.21,famous_male08.jpg
13,1,28,1,2,2,1,1271.76,famous_male09.jpg
13,2,29,1,2,2,1,1301.31,unknown_female14.jpg
13,2,30,1,1,1,1,1530.86,unknown_female02.jpg
13,2,31,2,1,1,1,1560.41,unknown_female04.jpg
13,1,32,1,4,4,1,1765.94,famous_male11.jpg
13,1,33,1,4,4,1,2067.54,famous_female04.jpg
13,1,34,2,4,4,1,1401.07,famous_male10.jpg
13,2,35,1,3,3,1,1566.64,unknown_male03.jpg
13,1,36,1,4,4,1,1660.15,famous_female10.jpg
13,2,37,1,4,4,1,1417.7,unknown_female09.jpg
13,1,38,1,3,3,1,1183.28,famous_male01.jpg
13,1,39,2,3,3,1,1356.84,famous_male18.jpg
13,2,40,2,3,3,1,1378.41,unknown_female16.jpg
13,2,41,1,2,2,1,1719.95,unknown_male13.jpg
13,2,42,1,3,3,1,1477.5,unknown_male12.jpg
13,1,43,2,3,3,1,1091.08,famous_male13.jpg
13,2,44,2,2,2,1,1288.62,unknown_female07.jpg
13,1,45,2,2,2,1,1190.15,famous_female06.jpg
13,1,46,1,2,2,1,995.71,famous_female18.jpg
13,1,47,1,2,2,1,1009.23,famous_male14.jpg
13,2,48,1,3,3,1,1222.78,unknown_female06.jpg
13,1,49,2,4,4,1,1644.36,famous_male02.jpg
13,1,50,2,3,3,1,1401.93,famous_male17.jpg
13,2,51,1,3,3,1,1551.47,unknown_male04.jpg
13,2,52,2,1,1,1,1293.04,unknown_male11.jpg
13,2,53,1,1,1,1,1106.57,unknown_female17.jpg
13,2,54,2,4,4,1,1208.13,unknown_female15.jpg
13,2,55,2,3,3,1,997.69,unknown_female13.jpg
13,2,56,2,4,4,1,1243.22,unknown_female10.jpg
13,1,57,2,4,4,1,1576.82,famous_female12.jpg
13,1,58,2,1,1,1,1262.28,famous_male03.jpg
13,1,59,1,1,1,1,1379.92,famous_female11.jpg
13,2,60,2,4,4,1,1713.42,unknown_male14.jpg
13,2,61,2,1,1,1,998.94,unknown_male15.jpg
13,1,62,1,2,2,1,1508.55,famous_male04.jpg
13,2,63,1,4,4,1,1458.18,unknown_female19.jpg
13,2,64,1,2,2,1,1351.66,unknown_male02.jpg
13,2,65,2,2,2,1,1517.19,unknown_male17.jpg
13,1,66,1,1,1,1,1018.77,famous_male19.jpg
13,2,67,2,3,3,1,1280.3,unknown_male05.jpg
13,2,68,1,2,2,1,1125.87,unknown_female03.jpg
13,1,69,1,3,3,1,2059.44,famous_male07.jpg
13,2,70,2,2,2,1,1288.98,unknown_male19.jpg
13,2,71,2,4,4,1,1094.53,unknown_male09.jpg
13,2,72,1,1,1,1,1476.09,unknown_male07.jpg
13,2,73,1,1,1,1,953.65,unknown_female01.jpg
13,1,74,1,1,1,1,1767.19,famous_female17.jpg
13,2,75,2,3,3,1,964.76,unknown_male06.jpg
13,2,76,2,2,2,1,866.27,unknown_male01.jpg
13,1,77,1,4,4,1,1103.82,famous_female13.jpg
13,2,78,1,4,4,1,1125.42,unknown_male20.jpg
13,1,79,2,3,3,1,1914.93,famous_female19.jpg
13,1,80,1,3,3,1,1376.53,famous_female05.jpg
14,1,1,1,4,4,1,1951.71,famous_female14.jpg
14,2,2,2,3,3,1,2397.3,unknown_female20.jpg
14,1,3,1,3,3,1,2810.85,famous_male17.jpg
14,1,4,2,1,1,1,2000.37,famous_female10.jpg
14,2,5,2,3,3,1,1581.94,unknown_female18.jpg
14,1,6,1,4,4,1,1763.49,famous_female07.jpg
14,1,7,2,1,1,1,1713.08,famous_male13.jpg
14,2,8,2,1,1,1,1558.59,unknown_female09.jpg
14,1,9,2,4,4,1,1396.15,famous_female12.jpg
14,2,10,1,4,4,1,1721.69,unknown_female17.jpg
14,2,11,2,4,4,1,1423.25,unknown_male10.jpg
14,1,12,1,3,3,1,1908.8,famous_female04.jpg
14,1,13,1,4,4,1,2330.36,famous_male18.jpg
14,2,14,1,4,4,1,1287.89,unknown_female02.jpg
14,1,15,1,2,2,1,1461.46,famous_male02.jpg
14,2,16,2,1,1,1,802.95,unknown_female04.jpg
14,2,17,2,3,3,1,704.58,unknown_male08.jpg
14,2,18,2,4,4,1,718.03,unknown_male19.jpg
14,2,19,2,1,1,1,635.67,unknown_female13.jpg
14,1,20,2,4,4,1,777.23,famous_male01.jpg
14,1,21,1,2,2,1,766.77,famous_male19.jpg
14,2,22,1,4,4,1,1476.33,unknown_female06.jpg
14,1,23,1,3,3,1,969.91,famous_male15.jpg
14,2,24,2,1,1,1,679.43,unknown_male07.jpg
14,1,25,2,2,2,1,581.03,famous_male07.jpg
14,1,26,2,1,1,1,1186.57,famous_female16.jpg
14,2,27,1,3,3,1,936.1,unknown_male03.jpg
14,2,28,1,3,3,1,853.65,unknown_female03.jpg
14,2,29,1,2,2,1,651.12,unknown_male04.jpg
14,2,30,1,4,4,1,1000.77,unknown_male06.jpg
14,2,31,1,1,1,1,782.32,unknown_female19.jpg
14,2,32,2,4,4,1,1051.86,unknown_female11.jpg
14,2,33,1,1,1,1,473.44,unknown_male20.jpg
14,1,34,2,3,3,1,638.97,famous_male09.jpg
14,1,35,1,4,4,1,1420.52,famous_male06.jpg
14,1,36,1,2,2,1,882.07,famous_female06.jpg
14,2,37,1,2,2,1,919.57,unknown_female15.jpg
14,2,38,1,3,3,1,589.17,unknown_male14.jpg
14,2,39,1,1,1,1,498.72,unknown_female14.jpg
14,1,40,1,3,3,1,832.28,famous_female11.jpg
14,1,41,2,3,3,1,469.82,famous_female17.jpg
14,2,42,1,4,4,1,691.39,unknown_male13.jpg
14,1,43,2,4,4,1,752.94,famous_female18.jpg
14,2,44,1,3,3,1,734.5,unknown_female16.jpg
14,1,45,1,4,4,1,692.04,famous_female05.jpg
14,1,46,1,2,2,1,569.6,famous_female09.jpg
14,2,47,2,2,2,1,695.18,unknown_male01.jpg
14,2,48,1,2,2,1,492.71,unknown_male18.jpg
14,2,49,2,2,2,1,474.26,unknown_male12.jpg
14,2,50,2,2,2,1,487.81,unknown_female07.jpg
14,2,51,1,3,3,1,1173.37,unknown_male09.jpg
14,1,52,2,3,3,1,370.91,famous_male12.jpg
14,2,53,2,2,2,1,1000.46,unknown_male02.jpg
14,1,54,2,2,2,1,717.98,famous_male03.jpg
14,1,55,2,1,1,1,731.6,famous_male05.jpg
14,1,56,2,2,2,1,769.14,famous_male14.jpg
14,1,57,2,2,2,1,782.71,famous_female02.jpg
14,1,58,1,1,1,1,644.21,famous_female13.jpg
14,1,59,2,2,2,1,513.8,famous_female20.jpg
14,1,60,2,1,1,1,623.34,famous_female03.jpg
14,2,61,2,4,4,1,708.89,unknown_female01.jpg
14,1,62,2,3,3,1,722.44,famous_male10.jpg
14,1,63,2,4,4,1,863.98,famous_male04.jpg
14,2,64,1,1,1,1,685.55,unknown_male16.jpg
14,1,65,1,1,1,1,635.11,famous_male16.jpg
14,2,66,2,2,2,1,456.66,unknown_female05.jpg
14,1,67,1,3,3,1,750.21,famous_male08.jpg
14,1,68,1,1,1,1,1243.79,famous_female15.jpg
14,2,69,2,3,3,1,1361.31,unknown_male05.jpg
14,2,70,2,4,4,1,870.87,unknown_female12.jpg
14,1,71,1,2,2,1,548.42,famous_male20.jpg
14,1,72,2,3,3,1,1833.98,famous_female01.jpg
14,2,73,1,2,2,1,735.52,unknown_male15.jpg
14,2,74,1,2,2,1,477.07,unknown_female08.jpg
14,2,75,2,1,1,1,658.63,unknown_male17.jpg
14,2,76,1,1,1,1,648.18,unknown_female10.jpg
14,2,77,2,3,3,1,757.74,unknown_male11.jpg
14,1,78,1,1,1,1,779.29,famous_female08.jpg
14,1,79,1,1,1,1,624.84,famous_male11.jpg
14,1,80,2,4,4,1,990.41,famous_female19.jpg
15,1,1,1,2,2,1,1040.53,famous_male16.jpg
15,2,2,1,2,2,1,526.14,unknown_male13.jpg
15,2,3,2,3,3,1,771.69,unknown_female14.jpg
15,1,4,1,1,1,1,569.25,famous_female04.jpg
15,2,5,2,3,3,1,926.83,unknown_male14.jpg
15,1,6,1,2,2,1,723.61,famous_male09.jpg
15,2,7,1,1,1,1,753.26,unknown_female09.jpg
15,2,8,1,2,2,1,830.77,unknown_male15.jpg
15,2,9,1,4,4,1,652.31,unknown_female11.jpg
15,2,10,2,1,1,1,641.86,unknown_female19.jpg
15,2,11,1,2,2,1,663.42,unknown_female07.jpg
15,1,12,1,3,3,1,644.96,famous_female05.jpg
15,1,13,2,3,3,1,698.5,famous_male13.jpg
15,2,14,1,1,1,1,656.09,unknown_female05.jpg
15,1,15,1,1,1,1,645.7,famous_male11.jpg
15,1,16,1,4,4,1,699.19,famous_female10.jpg
15,1,17,1,4,4,1,752.74,famous_male17.jpg
15,1,18,1,3,3,1,582.24,famous_female16.jpg
15,1,19,1,2,2,1,715.81,famous_female13.jpg
15,1,20,1,3,3,1,569.39,famous_male08.jpg
15,2,21,1,2,2,1,470.95,unknown_female20.jpg
15,1,22,2,4,4,1,604.5,famous_female08.jpg
15,1,23,2,3,3,1,578.06,famous_male03.jpg
15,1,24,2,2,2,1,463.59,famous_male14.jpg
15,2,25,2,1,1,1,637.17,unknown_male02.jpg
15,1,26,1,3,3,1,554.72,famous_male07.jpg
15,2,27,1,4,4,1,520.27,unknown_male06.jpg
15,2,28,1,3,3,1,573.81,unknown_male18.jpg
15,1,29,1,4,4,1,435.37,famous_female18.jpg
15,1,30,2,1,1,1,584.95,famous_female14.jpg
15,1,31,2,1,1,1,462.47,famous_male06.jpg
15,1,32,1,1,1,1,580.07,famous_male20.jpg
15,2,33,2,4,4,1,585.56,unknown_female01.jpg
15,1,34,1,4,4,1,543.1,famous_male15.jpg
15,2,35,2,1,1,1,516.63,unknown_female10.jpg
15,2,36,2,2,2,1,386.23,unknown_female08.jpg
15,2,37,2,3,3,1,495.83,unknown_male07.jpg
15,1,38,2,2,2,1,645.31,famous_female02.jpg
15,1,39,2,1,1,1,674.92,famous_female20.jpg
15,2,40,1,4,4,1,640.46,unknown_female13.jpg
15,1,41,1,2,2,1,606,famous_female17.jpg
15,1,42,1,4,4,1,539.56,famous_female19.jpg
15,1,43,2,4,4,1,473.11,famous_female06.jpg
15,1,44,2,4,4,1,454.67,famous_male02.jpg
15,2,45,2,2,2,1,668.25,unknown_female18.jpg
15,2,46,2,4,4,1,609.75,unknown_female06.jpg
15,2,47,2,4,4,1,607.32,unknown_female02.jpg
15,2,48,1,3,3,1,684.88,unknown_male20.jpg
15,2,49,2,2,2,1,738.42,unknown_male11.jpg
15,2,50,2,3,3,1,543.93,unknown_male19.jpg
15,2,51,2,1,1,1,885.54,unknown_male16.jpg
15,2,52,1,1,1,1,515.09,unknown_female16.jpg
15,2,53,1,3,3,1,672.67,unknown_female15.jpg
15,2,54,2,4,4,1,534.11,unknown_male03.jpg
15,2,55,2,4,4,1,395.76,unknown_male05.jpg
15,1,56,2,3,3,1,577.31,famous_female03.jpg
15,2,57,1,4,4,1,566.87,unknown_female03.jpg
15,2,58,2,2,2,1,764.43,unknown_male09.jpg
15,1,59,2,4,4,1,705.96,famous_female01.jpg
15,2,60,1,2,2,1,711.53,unknown_male04.jpg
15,2,61,1,1,1,1,741.13,unknown_male08.jpg
15,1,62,1,3,3,1,570.62,famous_male04.jpg
15,1,63,1,1,1,1,712.17,famous_female07.jpg
15,2,64,1,3,3,1,493.72,unknown_female17.jpg
15,2,65,2,3,3,1,451.29,unknown_female12.jpg
15,1,66,2,1,1,1,744.84,famous_female11.jpg
15,1,67,2,2,2,1,446.4,famous_male01.jpg
15,1,68,2,2,2,1,499.96,famous_female12.jpg
15,2,69,1,1,1,1,649.49,unknown_male10.jpg
15,1,70,1,2,2,1,639.05,famous_male10.jpg
15,1,71,2,3,3,1,652.57,famous_male18.jpg
15,1,72,2,4,4,1,618.08,famous_male12.jpg
15,2,73,2,1,1,1,943.68,unknown_female04.jpg
15,1,74,2,3,3,1,525.26,famous_female15.jpg
15,2,75,1,4,4,1,626.8,unknown_male12.jpg
15,1,76,2,1,1,1,800.36,famous_male19.jpg
15,1,77,1,1,1,1,685.91,famous_female09.jpg
15,1,78,2,2,2,1,699.44,famous_male05.jpg
15,2,79,2,2,2,1,497.02,unknown_male01.jpg
15,2,80,1,3,3,1,662.57,unknown_male17.jpg
16,2,1,1,2,2,1,1476.06,unknown_male20.jpg
16,1,2,2,2,2,1,969.57,famous_female14.jpg
16,1,3,1,4,4,1,1143.21,famous_male05.jpg
16,2,4,1,2,2,1,1116.68,unknown_male01.jpg
16,1,5,2,4,4,1,1258.31,famous_female05.jpg
16,2,6,1,1,1,1,911.86,unknown_female14.jpg
16,1,7,1,1,1,1,1133.4,famous_female11.jpg
16,1,8,2,1,1,1,1386.97,famous_female13.jpg
16,2,9,2,3,3,1,1040.51,unknown_male10.jpg
16,1,10,1,1,1,1,1646.03,famous_female04.jpg
16,1,11,2,4,4,1,1059.62,famous_female17.jpg
16,2,12,1,1,1,1,937.13,unknown_female02.jpg
16,1,13,1,1,1,1,806.72,famous_male17.jpg
16,2,14,2,1,1,1,860.29,unknown_male15.jpg
16,1,15,2,4,4,1,833.84,famous_female06.jpg
16,2,16,1,4,4,1,959.4,unknown_male19.jpg
16,2,17,1,3,3,1,1212.93,unknown_male08.jpg
16,1,18,2,1,1,1,1458.46,famous_male10.jpg
16,1,19,2,3,3,1,968.05,famous_male01.jpg
16,2,20,1,3,3,1,893.59,unknown_male03.jpg
16,2,21,2,3,3,1,1011.15,unknown_male05.jpg
16,1,22,1,4,4,1,840.7,famous_female20.jpg
16,1,23,2,2,2,1,934.2,famous_male03.jpg
16,2,24,2,1,1,1,979.82,unknown_male18.jpg
16,2,25,2,1,1,1,857.33,unknown_female17.jpg
16,1,26,1,4,4,1,1046.94,famous_male12.jpg
16,2,27,1,1,1,1,1556.46,unknown_male13.jpg
16,1,28,1,3,3,1,1346.03,famous_male07.jpg
16,2,29,2,2,2,1,999.58,unknown_female06.jpg
16,1,30,2,1,1,1,1021.14,famous_female02.jpg
16,1,31,2,3,3,1,1450.67,famous_female07.jpg
16,1,32,1,3,3,1,1336.24,famous_female12.jpg
16,1,33,2,4,4,1,1261.75,famous_male20.jpg
16,2,34,1,3,3,1,987.26,unknown_male14.jpg
16,2,35,2,4,4,1,1368.88,unknown_female18.jpg
16,2,36,2,3,3,1,1734.45,unknown_female20.jpg
16,1,37,2,1,1,1,2076,famous_male13.jpg
16,2,38,2,4,4,1,1137.56,unknown_male04.jpg
16,2,39,2,2,2,1,1103.1,unknown_male02.jpg
16,1,40,2,4,4,1,932.66,famous_male09.jpg
16,2,41,2,2,2,1,1946.22,unknown_male16.jpg
16,2,42,1,3,3,1,1191.76,unknown_female15.jpg
16,2,43,1,2,2,1,1645.35,unknown_male11.jpg
16,2,44,2,1,1,1,1426.83,unknown_female05.jpg
16,1,45,2,2,2,1,1544.42,famous_male14.jpg
16,2,46,1,4,4,1,1573.95,unknown_male06.jpg
16,2,47,1,4,4,1,1315.54,unknown_female10.jpg
16,1,48,1,3,3,1,1153.05,famous_female01.jpg
16,1,49,1,1,1,1,918.62,famous_female16.jpg
16,2,50,1,4,4,1,764.18,unknown_female01.jpg
16,2,51,2,2,2,1,1089.74,unknown_male09.jpg
16,1,52,2,3,3,1,807.25,famous_female09.jpg
16,2,53,1,1,1,1,764.84,unknown_male07.jpg
16,2,54,2,3,3,1,770.39,unknown_female07.jpg
16,1,55,1,2,2,1,687.94,famous_male11.jpg
16,1,56,2,3,3,1,837.47,famous_male04.jpg
16,1,57,2,2,2,1,779.04,famous_female15.jpg
16,2,58,2,4,4,1,1008.61,unknown_female04.jpg
16,1,59,1,2,2,1,1046.15,famous_female03.jpg
16,1,60,2,1,1,1,1115.72,famous_female10.jpg
16,2,61,1,2,2,1,865.26,unknown_female12.jpg
16,2,62,1,2,2,1,1478.82,unknown_female03.jpg
16,1,63,1,4,4,1,1132.34,famous_female08.jpg
16,2,64,1,1,1,1,1481.92,unknown_female09.jpg
16,2,65,2,4,4,1,1215.47,unknown_male12.jpg
16,1,66,1,1,1,1,756.99,famous_male19.jpg
16,1,67,1,2,2,1,1074.58,famous_female19.jpg
16,2,68,2,1,1,1,760.14,unknown_female08.jpg
16,1,69,1,2,2,1,533.69,famous_male16.jpg
16,1,70,2,3,3,1,643.24,famous_male06.jpg
16,1,71,1,2,2,1,792.8,famous_male15.jpg
16,1,72,1,4,4,1,598.35,famous_female18.jpg
16,1,73,2,2,2,1,811.9,famous_male08.jpg
16,1,74,1,3,3,1,1241.32,famous_male18.jpg
16,2,75,2,3,3,1,791,unknown_male17.jpg
16,2,76,1,3,3,1,1244.58,unknown_female16.jpg
16,2,77,2,4,4,1,1122.12,unknown_female13.jpg
16,1,78,1,3,3,1,863.66,famous_male02.jpg
16,2,79,1,4,4,1,1005.19,unknown_female19.jpg
16,2,80,2,2,2,1,1066.77,unknown_female11.jpg
17,2,1,1,4,4,1,510.96,unknown_male18.jpg
17,2,2,1,1,1,1,828.54,unknown_male17.jpg
17,2,3,2,1,1,1,866.1,unknown_female16.jpg
17,1,4,1,4,4,1,831.67,famous_female12.jpg
17,2,5,1,3,3,1,869.14,unknown_male10.jpg
17,1,6,1,2,2,1,729.99,famous_female05.jpg
17,1,7,2,3,3,1,951.61,famous_female10.jpg
17,1,8,2,1,1,1,733.18,famous_female07.jpg
17,1,9,2,3,3,1,946.68,famous_male20.jpg
17,2,10,1,2,2,1,1008.2,unknown_male08.jpg
17,2,11,2,2,2,1,701.82,unknown_female04.jpg
17,1,12,2,2,2,1,651.38,famous_male11.jpg
17,2,13,2,4,4,1,672.93,unknown_male04.jpg
17,1,14,1,2,2,1,638.46,famous_male15.jpg
17,1,15,1,1,1,1,812.05,famous_male01.jpg
17,1,16,2,2,2,1,1025.58,famous_male07.jpg
17,2,17,2,1,1,1,1015.13,unknown_male09.jpg
17,1,18,1,2,2,1,1068.62,famous_female16.jpg
17,1,19,2,3,3,1,1434.24,famous_male17.jpg
17,1,20,2,2,2,1,783.79,famous_female20.jpg
17,1,21,1,1,1,1,757.35,famous_female18.jpg
17,1,22,2,4,4,1,1098.9,famous_female08.jpg
17,2,23,2,2,2,1,632.43,unknown_male01.jpg
17,2,24,1,1,1,1,494.01,unknown_female12.jpg
17,2,25,1,4,4,1,1107.52,unknown_female17.jpg
17,1,26,1,4,4,1,617.12,famous_male09.jpg
17,2,27,1,3,3,1,678.66,unknown_male07.jpg
17,1,28,1,1,1,1,804.21,famous_female04.jpg
17,1,29,1,4,4,1,785.76,famous_female02.jpg
17,1,30,2,4,4,1,639.33,famous_male16.jpg
17,2,31,1,3,3,1,836.84,unknown_male13.jpg
17,1,32,1,4,4,1,1018.46,famous_female14.jpg
17,2,33,2,2,2,1,959.98,unknown_male20.jpg
17,1,34,1,3,3,1,805.55,famous_male06.jpg
17,1,35,1,3,3,1,715.03,famous_male12.jpg
17,2,36,2,4,4,1,904.6,unknown_female06.jpg
17,1,37,2,2,2,1,966.19,famous_male02.jpg
17,1,38,2,1,1,1,795.75,famous_female19.jpg
17,2,39,2,4,4,1,1025.27,unknown_female13.jpg
17,1,40,1,2,2,1,822.86,famous_male13.jpg
17,2,41,1,1,1,1,836.4,unknown_female15.jpg
17,2,42,2,1,1,1,1201.96,unknown_female09.jpg
17,1,43,2,1,1,1,1207.52,famous_male18.jpg
17,2,44,1,4,4,1,805.06,unknown_female14.jpg
17,1,45,1,3,3,1,802.56,famous_female17.jpg
17,2,46,2,3,3,1,936.14,unknown_female03.jpg
17,1,47,1,4,4,1,637.66,famous_male14.jpg
17,2,48,2,1,1,1,955.29,unknown_male14.jpg
17,1,49,2,1,1,1,1136.83,famous_male10.jpg
17,1,50,1,1,1,1,598.4,famous_male05.jpg
17,2,51,2,1,1,1,651.93,unknown_female02.jpg
17,1,52,2,1,1,1,1465.51,famous_female15.jpg
17,1,53,1,3,3,1,903.05,famous_male03.jpg
17,2,54,1,2,2,1,1028.59,unknown_male12.jpg
17,2,55,2,4,4,1,914.21,unknown_female05.jpg
17,2,56,1,2,2,1,959.7,unknown_male02.jpg
17,1,57,2,4,4,1,813.25,famous_male04.jpg
17,2,58,1,4,4,1,730.81,unknown_female08.jpg
17,1,59,2,4,4,1,728.38,famous_female09.jpg
17,1,60,1,1,1,1,1229.92,famous_female06.jpg
17,1,61,2,4,4,1,651.46,famous_female13.jpg
17,2,62,2,2,2,1,857.06,unknown_male05.jpg
17,1,63,2,3,3,1,662.57,famous_male19.jpg
17,2,64,1,1,1,1,1212.12,unknown_female19.jpg
17,2,65,2,2,2,1,601.68,unknown_female01.jpg
17,2,66,1,4,4,1,711.25,unknown_male19.jpg
17,1,67,2,3,3,1,676.79,famous_female11.jpg
17,2,68,2,3,3,1,666.34,unknown_female10.jpg
17,2,69,2,3,3,1,1231.89,unknown_male15.jpg
17,2,70,1,3,3,1,933.41,unknown_female11.jpg
17,2,71,2,3,3,1,714.97,unknown_male16.jpg
17,2,72,1,3,3,1,568.54,unknown_female07.jpg
17,1,73,1,3,3,1,726.1,famous_female03.jpg
17,2,74,2,3,3,1,579.65,unknown_male03.jpg
17,2,75,1,1,1,1,1241.17,unknown_male11.jpg
17,1,76,1,2,2,1,710.77,famous_male08.jpg
17,1,77,2,2,2,1,612.31,famous_female01.jpg
17,2,78,1,2,2,1,481.86,unknown_female18.jpg
17,2,79,1,2,2,1,532.56,unknown_female20.jpg
17,2,80,2,4,4,1,738.2,unknown_male06.jpg
18,1,1,2,3,3,1,1044.62,famous_female18.jpg
18,2,2,1,3,3,1,1442.21,unknown_female06.jpg
18,1,3,2,2,2,1,1479.72,famous_female01.jpg
18,2,4,2,4,4,1,1421.33,unknown_male17.jpg
18,2,5,1,3,3,1,1194.88,unknown_male04.jpg
18,1,6,1,4,4,1,1400.36,famous_female15.jpg
18,2,7,1,4,4,1,1349.97,unknown_female19.jpg
18,1,8,2,3,3,1,1411.5,famous_male06.jpg
18,1,9,1,1,1,1,1313.04,famous_male15.jpg
18,2,10,1,4,4,1,1118.6,unknown_female20.jpg
18,2,11,1,1,1,1,1460.19,unknown_female17.jpg
18,1,12,2,4,4,1,1345.73,famous_female16.jpg
18,2,13,2,2,2,1,1327.28,unknown_female10.jpg
18,2,14,1,4,4,1,1612.84,unknown_male18.jpg
18,2,15,2,3,3,1,1266.36,unknown_female13.jpg
18,2,16,2,1,1,1,1183.95,unknown_female12.jpg
18,2,17,1,2,2,1,1469.36,unknown_female09.jpg
18,1,18,2,2,2,1,1675.04,famous_female10.jpg
18,1,19,2,1,1,1,1184.61,famous_female17.jpg
18,1,20,1,4,4,1,1334.16,famous_female02.jpg
18,1,21,2,3,3,1,1315.71,famous_male16.jpg
18,2,22,2,2,2,1,1217.26,unknown_male05.jpg
18,2,23,2,1,1,1,1758.82,unknown_female07.jpg
18,1,24,1,1,1,1,1932.53,famous_female08.jpg
18,2,25,2,1,1,1,1817.92,unknown_male03.jpg
18,2,26,1,1,1,1,1815.44,unknown_male08.jpg
18,1,27,1,3,3,1,1485.04,famous_female11.jpg
18,1,28,2,2,2,1,1818.59,famous_male10.jpg
18,1,29,2,1,1,1,1360.13,famous_female07.jpg
18,1,30,1,1,1,1,1229.69,famous_female20.jpg
18,1,31,1,3,3,1,1459.24,famous_male18.jpg
18,2,32,2,1,1,1,1544.73,unknown_male01.jpg
18,2,33,1,2,2,1,1734.35,unknown_male12.jpg
18,1,34,2,3,3,1,1667.9,famous_female03.jpg
18,1,35,1,3,3,1,1561.45,famous_male04.jpg
18,2,36,1,3,3,1,1927.01,unknown_male13.jpg
18,1,37,1,4,4,1,1620.58,famous_male14.jpg
18,2,38,2,2,2,1,1610.11,unknown_female01.jpg
18,1,39,2,2,2,1,1559.67,famous_male01.jpg
18,2,40,1,2,2,1,1981.23,unknown_male10.jpg
18,1,41,2,4,4,1,1714.77,famous_male05.jpg
18,2,42,2,4,4,1,1408.32,unknown_female18.jpg
18,2,43,1,3,3,1,1789.88,unknown_male14.jpg
18,1,44,2,1,1,1,1523.44,famous_male19.jpg
18,1,45,2,1,1,1,1296.97,famous_male17.jpg
18,2,46,1,1,1,1,726.53,unknown_female03.jpg
18,2,47,1,3,3,1,1244.05,unknown_female08.jpg
18,2,48,2,1,1,1,1031.12,unknown_female04.jpg
18,1,49,1,2,2,1,1060.71,famous_female12.jpg
18,2,50,2,3,3,1,986.15,unknown_male19.jpg
18,2,51,2,4,4,1,1487.75,unknown_male15.jpg
18,2,52,2,3,3,1,1197.33,unknown_female11.jpg
18,2,53,1,4,4,1,2122.92,unknown_male20.jpg
18,1,54,1,2,2,1,1776.47,famous_male12.jpg
18,1,55,1,1,1,1,1389.96,famous_female06.jpg
18,2,56,2,4,4,1,1467.58,unknown_female16.jpg
18,1,57,1,4,4,1,1601.13,famous_male11.jpg
18,1,58,1,2,2,1,1486.65,famous_male03.jpg
18,2,59,1,1,1,1,1300.23,unknown_female15.jpg
18,1,60,1,2,2,1,1353.79,famous_female05.jpg
18,2,61,2,2,2,1,1335.35,unknown_male02.jpg
18,2,62,1,1,1,1,1116.87,unknown_male11.jpg
18,1,63,2,2,2,1,1898.39,famous_male09.jpg
18,1,64,1,1,1,1,1616.02,famous_male20.jpg
18,1,65,1,4,4,1,1533.56,famous_female04.jpg
18,1,66,1,3,3,1,1395.11,famous_male07.jpg
18,2,67,1,2,2,1,1216.63,unknown_male07.jpg
18,1,68,2,4,4,1,1062.21,famous_female19.jpg
18,1,69,2,4,4,1,1659.77,famous_male02.jpg
18,1,70,1,2,2,1,1153.33,famous_male08.jpg
18,2,71,2,3,3,1,1606.87,unknown_male16.jpg
18,1,72,2,4,4,1,1324.39,famous_female13.jpg
18,2,73,2,4,4,1,1473.98,unknown_female02.jpg
18,1,74,2,3,3,1,1175.49,famous_male13.jpg
18,1,75,1,3,3,1,1293.08,famous_female14.jpg
18,2,76,1,2,2,1,1458.63,unknown_female14.jpg
18,1,77,2,1,1,1,1168.19,famous_female09.jpg
18,2,78,2,2,2,1,1285.73,unknown_male06.jpg
18,2,79,1,4,4,1,1187.3,unknown_female05.jpg
18,2,80,2,3,3,1,856.86,unknown_male09.jpg
19,1,1,1,1,1,1,795.16,famous_female08.jpg
19,2,2,1,3,3,1,856.66,unknown_female08.jpg
19,1,3,2,1,1,1,630.31,famous_male02.jpg
19,1,4,2,2,2,1,779.88,famous_male11.jpg
19,1,5,2,4,4,1,777.44,famous_female06.jpg
19,1,6,2,4,4,1,750.25,famous_female07.jpg
19,2,7,2,4,4,1,651.84,unknown_male11.jpg
19,1,8,1,4,4,1,521.41,famous_male07.jpg
19,1,9,1,2,2,1,614.93,famous_female05.jpg
19,1,10,1,2,2,1,636.43,famous_male08.jpg
19,2,11,1,2,2,1,722.06,unknown_female17.jpg
19,1,12,2,4,4,1,751.58,famous_female16.jpg
19,2,13,2,4,4,1,789.14,unknown_female14.jpg
19,2,14,1,1,1,1,1026.7,unknown_female20.jpg
19,2,15,2,1,1,1,600.25,unknown_female18.jpg
19,2,16,1,4,4,1,1061.74,unknown_female19.jpg
19,1,17,1,1,1,1,603.33,famous_male03.jpg
19,1,18,2,2,2,1,944.91,famous_female14.jpg
19,1,19,2,1,1,1,814.43,famous_female02.jpg
19,2,20,1,4,4,1,1068.02,unknown_female12.jpg
19,2,21,2,1,1,1,1089.58,unknown_male15.jpg
19,2,22,2,2,2,1,767.12,unknown_male06.jpg
19,1,23,1,2,2,1,588.67,famous_male15.jpg
19,1,24,2,3,3,1,1458.22,famous_male06.jpg
19,2,25,2,3,3,1,623.78,unknown_male12.jpg
19,2,26,2,3,3,1,685.33,unknown_male10.jpg
19,1,27,2,3,3,1,858.88,famous_female10.jpg
19,2,28,1,4,4,1,760.44,unknown_male18.jpg
19,2,29,2,4,4,1,662.01,unknown_female03.jpg
19,2,30,1,4,4,1,499.55,unknown_male17.jpg
19,2,31,1,3,3,1,769.14,unknown_male08.jpg
19,1,32,1,1,1,1,646.7,famous_female15.jpg
19,2,33,2,1,1,1,412.17,unknown_female10.jpg
19,2,34,2,4,4,1,433.69,unknown_female06.jpg
19,1,35,2,2,2,1,823.31,famous_male04.jpg
19,1,36,1,3,3,1,620.83,famous_male09.jpg
19,2,37,1,3,3,1,610.41,unknown_male14.jpg
19,1,38,1,2,2,1,1007.97,famous_male17.jpg
19,1,39,2,4,4,1,1269.51,famous_male19.jpg
19,2,40,1,1,1,1,1707.08,unknown_male13.jpg
19,2,41,2,3,3,1,808.63,unknown_male19.jpg
19,2,42,1,3,3,1,462.18,unknown_female13.jpg
19,1,43,1,3,3,1,603.68,famous_male13.jpg
19,1,44,2,4,4,1,569.23,famous_male16.jpg
19,2,45,1,1,1,1,814.84,unknown_male05.jpg
19,1,46,1,3,3,1,756.41,famous_male18.jpg
19,1,47,1,4,4,1,449.95,famous_female09.jpg
19,2,48,2,2,2,1,687.49,unknown_male09.jpg
19,1,49,1,4,4,1,813.05,famous_female18.jpg
19,1,50,2,1,1,1,962.6,famous_male10.jpg
19,1,51,2,3,3,1,576.16,famous_male12.jpg
19,1,52,2,1,1,1,805.71,famous_female19.jpg
19,1,53,2,2,2,1,459.26,famous_female04.jpg
19,1,54,2,1,1,1,968.8,famous_female17.jpg
19,2,55,1,2,2,1,662.29,unknown_male04.jpg
19,2,56,1,1,1,1,1587.92,unknown_female15.jpg
19,2,57,2,2,2,1,409.48,unknown_female09.jpg
19,2,58,2,3,3,1,550.98,unknown_female01.jpg
19,2,59,1,2,2,1,580.57,unknown_male16.jpg
19,2,60,2,2,2,1,442.13,unknown_male07.jpg
19,1,61,1,3,3,1,831.7,famous_female11.jpg
19,1,62,1,4,4,1,1109.23,famous_female13.jpg
19,1,63,2,3,3,1,618.79,famous_female20.jpg
19,1,64,1,2,2,1,592.36,famous_female12.jpg
19,2,65,1,2,2,1,653.9,unknown_male20.jpg
19,1,66,1,4,4,1,571.44,famous_male14.jpg
19,2,67,2,4,4,1,513.03,unknown_male02.jpg
19,2,68,1,4,4,1,574.56,unknown_female04.jpg
19,2,69,2,1,1,1,996.11,unknown_female11.jpg
19,1,70,1,1,1,1,601.66,famous_female03.jpg
19,2,71,2,2,2,1,471.21,unknown_female02.jpg
19,2,72,1,2,2,1,396.77,unknown_female16.jpg
19,2,73,2,3,3,1,730.32,unknown_female07.jpg
19,2,74,2,1,1,1,407.88,unknown_male03.jpg
19,1,75,2,3,3,1,925.42,famous_male05.jpg
19,2,76,1,3,3,1,883,unknown_male01.jpg
19,2,77,1,1,1,1,744.53,unknown_female05.jpg
19,1,78,1,1,1,1,534.05,famous_male01.jpg
19,1,79,2,2,2,1,555.59,famous_male20.jpg
19,1,80,1,3,3,1,769.19,famous_female01.jpg
20,2,1,1,1,1,1,3287.54,unknown_male04.jpg
20,1,2,2,1,1,1,1541.06,famous_male05.jpg
20,2,3,2,2,2,1,898.62,unknown_male12.jpg
20,2,4,1,3,3,1,648.17,unknown_female04.jpg
20,1,5,1,1,1,1,1181.71,famous_male06.jpg
20,2,6,2,3,3,1,1291.28,unknown_male07.jpg
20,2,7,1,4,4,1,1112.82,unknown_female18.jpg
20,2,8,2,4,4,1,918.3,unknown_female01.jpg
20,2,9,1,2,2,1,883.93,unknown_female02.jpg
20,2,10,2,3,3,1,1465.49,unknown_female17.jpg
20,2,11,1,2,2,1,807.04,unknown_male20.jpg
20,2,12,2,2,2,1,1388.59,unknown_male11.jpg
20,1,13,2,2,2,1,1090.14,famous_male18.jpg
20,2,14,2,1,1,1,1791.7,unknown_male14.jpg
20,1,15,2,2,2,1,973.25,famous_male16.jpg
20,1,16,1,4,4,1,810.8,famous_female09.jpg
20,1,17,2,3,3,1,1496.35,famous_male10.jpg
20,1,18,2,3,3,1,1509.91,famous_female08.jpg
20,2,19,1,1,1,1,1227.45,unknown_male02.jpg
20,2,20,2,2,2,1,913.03,unknown_female06.jpg
20,2,21,1,2,2,1,1062.56,unknown_female12.jpg
20,2,22,2,1,1,1,1076.12,unknown_female14.jpg
20,2,23,1,1,1,1,1177.67,unknown_female03.jpg
20,2,24,1,4,4,1,1775.21,unknown_male03.jpg
20,1,25,1,3,3,1,1068.67,famous_male04.jpg
20,1,26,1,4,4,1,1218.33,famous_male15.jpg
20,1,27,2,1,1,1,1119.88,famous_female03.jpg
20,2,28,2,1,1,1,1141.43,unknown_male08.jpg
20,1,29,1,1,1,1,866.99,famous_male03.jpg
20,2,30,2,3,3,1,992.54,unknown_female20.jpg
20,1,31,1,1,1,1,1022.09,famous_female12.jpg
20,1,32,2,4,4,1,835.65,famous_female01.jpg
20,2,33,2,4,4,1,1001.22,unknown_female08.jpg
20,1,34,2,4,4,1,1198.74,famous_female13.jpg
20,2,35,2,4,4,1,1844.31,unknown_male17.jpg
20,2,36,2,2,2,1,1097.75,unknown_female09.jpg
20,1,37,2,3,3,1,943.44,famous_male12.jpg
20,1,38,1,2,2,1,964.95,famous_male07.jpg
20,1,39,1,2,2,1,1050.53,famous_female20.jpg
20,2,40,2,3,3,1,1184.08,unknown_male15.jpg
20,2,41,1,3,3,1,509.62,unknown_male05.jpg
20,1,42,2,1,1,1,1499.18,famous_male08.jpg
20,2,43,1,1,1,1,1152.73,unknown_female05.jpg
20,1,44,2,1,1,1,1070.29,famous_female19.jpg
20,1,45,1,4,4,1,2187.84,famous_male20.jpg
20,1,46,1,3,3,1,1217.49,famous_male02.jpg
20,1,47,1,3,3,1,750.94,famous_male11.jpg
20,2,48,2,1,1,1,1636.45,unknown_female11.jpg
20,2,49,2,3,3,1,850.07,unknown_male13.jpg
20,2,50,2,4,4,1,823.6,unknown_female15.jpg
20,1,51,2,2,2,1,869.16,famous_female02.jpg
20,1,52,1,2,2,1,826.61,famous_male17.jpg
20,2,53,1,3,3,1,1064.26,unknown_male09.jpg
20,1,54,2,1,1,1,1413.82,famous_female10.jpg
20,1,55,2,3,3,1,827.37,famous_female16.jpg
20,1,56,2,4,4,1,1152.92,famous_male01.jpg
20,1,57,2,2,2,1,1046.47,famous_female18.jpg
20,1,58,1,2,2,1,1220.02,famous_male09.jpg
20,2,59,1,2,2,1,689.57,unknown_male06.jpg
20,1,60,2,2,2,1,895.13,famous_male19.jpg
20,1,61,1,4,4,1,836.68,famous_female15.jpg
20,1,62,1,1,1,1,1098.24,famous_female11.jpg
20,1,63,1,3,3,1,1375.79,famous_female05.jpg
20,2,64,1,3,3,1,669.34,unknown_male19.jpg
20,2,65,2,4,4,1,1162.9,unknown_male10.jpg
20,1,66,1,1,1,1,1824.47,famous_female07.jpg
20,2,67,1,4,0,0,0,unknown_female07.jpg
20,2,68,1,4,4,1,1115.58,unknown_male16.jpg
20,1,69,1,3,3,1,1065.11,famous_female04.jpg
20,2,70,1,2,2,1,1318.67,unknown_male01.jpg
20,1,71,1,2,2,1,1036.36,famous_female17.jpg
20,2,72,1,1,1,1,1465.77,unknown_female19.jpg
20,1,73,2,4,4,1,1879.31,famous_female14.jpg
20,1,74,2,4,4,1,1636.87,famous_male14.jpg
20,2,75,2,1,1,1,1826.41,unknown_female10.jpg
20,1,76,2,3,3,1,2527.98,famous_male13.jpg
20,2,77,2,2,2,1,2429.54,unknown_male18.jpg
20,1,78,1,4,4,1,1603.02,famous_female06.jpg
20,2,79,1,3,3,1,1840.64,unknown_female13.jpg
20,2,80,1,4,4,1,1398.22,unknown_female16.jpg
21,2,1,2,2,2,1,759.23,unknown_female05.jpg
21,1,2,1,4,4,1,732.84,famous_male18.jpg
21,2,3,1,3,3,1,762.34,unknown_male19.jpg
21,1,4,2,2,2,1,575.94,famous_female06.jpg
21,1,5,1,2,2,1,821.49,famous_male06.jpg
21,1,6,2,1,1,1,898.31,famous_male20.jpg
21,1,7,2,4,4,1,695.9,famous_female11.jpg
21,1,8,1,4,4,1,709.44,famous_female04.jpg
21,1,9,1,4,4,1,563.01,famous_female14.jpg
21,1,10,2,1,1,1,1008.58,famous_male08.jpg
21,2,11,1,2,2,1,678.11,unknown_female18.jpg
21,2,12,1,1,1,1,763.67,unknown_female10.jpg
21,1,13,2,4,4,1,641.22,famous_female19.jpg
21,2,14,2,2,2,1,590.78,unknown_male20.jpg
21,2,15,2,4,4,1,660.32,unknown_male16.jpg
21,1,16,2,1,1,1,849.85,famous_female12.jpg
21,2,17,2,2,2,1,591.44,unknown_female07.jpg
21,2,18,1,3,3,1,1021.02,unknown_female02.jpg
21,2,19,2,1,1,1,786.53,unknown_female14.jpg
21,2,20,2,1,1,1,544.09,unknown_male01.jpg
21,2,21,2,2,2,1,725.66,unknown_male18.jpg
21,1,22,1,4,4,1,635.2,famous_female10.jpg
21,1,23,1,3,3,1,696.74,famous_male19.jpg
21,2,24,1,3,3,1,638.28,unknown_male15.jpg
21,1,25,1,3,3,1,723.85,famous_male11.jpg
21,1,26,1,1,1,1,681.4,famous_female09.jpg
21,1,27,2,3,3,1,686.97,famous_female20.jpg
21,2,28,1,2,2,1,748.52,unknown_female19.jpg
21,2,29,2,3,3,1,737.98,unknown_female15.jpg
21,2,30,1,4,4,1,583.61,unknown_female16.jpg
21,2,31,2,3,3,1,669.21,unknown_male07.jpg
21,2,32,2,4,4,1,594.76,unknown_female11.jpg
21,2,33,2,1,1,1,736.28,unknown_female20.jpg
21,1,34,2,2,2,1,565.84,famous_female01.jpg
21,1,35,2,4,4,1,475.36,famous_male04.jpg
21,1,36,1,3,3,1,632.94,famous_female16.jpg
21,1,37,1,2,2,1,614.45,famous_female18.jpg
21,2,38,1,2,2,1,724.05,unknown_male10.jpg
21,2,39,1,4,4,1,761.53,unknown_female12.jpg
21,2,40,2,2,2,1,631.15,unknown_male12.jpg
21,2,41,1,1,1,1,900.71,unknown_female09.jpg
21,2,42,1,4,4,1,682.25,unknown_male13.jpg
21,1,43,1,1,1,1,591.8,famous_male14.jpg
21,1,44,2,4,4,1,701.32,famous_female15.jpg
21,1,45,1,4,4,1,546.91,famous_male02.jpg
21,1,46,1,2,2,1,728.46,famous_female02.jpg
21,1,47,2,1,1,1,869.99,famous_female03.jpg
21,1,48,2,3,3,1,699.56,famous_male17.jpg
21,2,49,1,3,3,1,585.12,unknown_female13.jpg
21,1,50,1,1,1,1,630.64,famous_male16.jpg
21,1,51,1,2,2,1,684.25,famous_male05.jpg
21,1,52,1,3,3,1,713.8,famous_male12.jpg
21,1,53,1,3,3,1,743.26,famous_female13.jpg
21,1,54,2,2,2,1,668.89,famous_male10.jpg
21,1,55,2,2,2,1,690.44,famous_male01.jpg
21,1,56,1,1,1,1,687.99,famous_female08.jpg
21,2,57,2,4,4,1,1045.55,unknown_female17.jpg
21,2,58,1,2,2,1,595.05,unknown_male04.jpg
21,2,59,1,1,1,1,680.59,unknown_male14.jpg
21,2,60,2,3,3,1,590.23,unknown_male05.jpg
21,1,61,2,4,4,1,603.73,famous_male09.jpg
21,1,62,2,3,3,1,1041.32,famous_male07.jpg
21,2,63,2,3,3,1,710.86,unknown_female06.jpg
21,2,64,1,1,1,1,780.42,unknown_male09.jpg
21,1,65,1,1,1,1,673.91,famous_female17.jpg
21,2,66,2,3,3,1,687.53,unknown_male03.jpg
21,2,67,1,4,4,1,765.08,unknown_female08.jpg
21,2,68,1,2,2,1,738.63,unknown_male17.jpg
21,1,69,1,2,2,1,336.21,famous_male13.jpg
21,1,70,2,3,3,1,1149.74,famous_female05.jpg
21,2,71,2,1,1,1,723.29,unknown_male08.jpg
21,1,72,2,2,2,1,616.84,famous_male03.jpg
21,1,73,2,3,3,1,494.36,famous_male15.jpg
21,2,74,2,1,1,1,587.95,unknown_female04.jpg
21,2,75,1,4,4,1,649.48,unknown_male06.jpg
21,1,76,2,1,1,1,743.09,famous_female07.jpg
21,2,77,2,4,4,1,700.62,unknown_male02.jpg
21,2,78,2,4,4,1,706.16,unknown_female01.jpg
21,2,79,1,1,1,1,655.72,unknown_female03.jpg
21,2,80,1,3,3,1,613.27,unknown_male11.jpg
22,2,1,2,1,1,1,708.05,unknown_female15.jpg
22,1,2,1,4,4,1,1033.6,famous_female12.jpg
22,2,3,2,4,4,1,1319.08,unknown_male03.jpg
22,1,4,1,2,2,1,964.71,famous_male20.jpg
22,2,5,1,3,3,1,1058.26,unknown_male10.jpg
22,2,6,1,1,1,1,903.82,unknown_male04.jpg
22,1,7,2,4,4,1,1933.4,famous_female20.jpg
22,2,8,2,1,1,1,1058.89,unknown_female11.jpg
22,2,9,1,2,2,1,1264.48,unknown_female05.jpg
22,1,10,2,3,3,1,886.03,famous_male03.jpg
22,2,11,1,3,3,1,1227.58,unknown_male12.jpg
22,1,12,2,1,1,1,1209.15,famous_female04.jpg
22,2,13,2,3,3,1,1150.69,unknown_female03.jpg
22,2,14,2,2,2,1,1012.24,unknown_male14.jpg
22,1,15,1,1,1,1,913.79,famous_female17.jpg
22,2,16,2,4,4,1,1087.34,unknown_female04.jpg
22,1,17,2,3,3,1,2068.89,famous_female06.jpg
22,1,18,1,4,4,1,922.45,famous_female11.jpg
22,2,19,2,2,2,1,1223.99,unknown_male13.jpg
22,2,20,1,4,4,1,1421.54,unknown_female08.jpg
22,2,21,1,3,3,1,1283.1,unknown_female19.jpg
22,1,22,2,2,2,1,1000.57,famous_male09.jpg
22,1,23,2,2,2,1,1222.22,famous_female01.jpg
22,2,24,2,3,3,1,1235.66,unknown_male15.jpg
22,1,25,1,4,4,1,673.33,famous_female09.jpg
22,1,26,2,2,2,1,982.9,famous_male06.jpg
22,1,27,1,2,2,1,884.43,famous_male16.jpg
22,1,28,1,1,1,1,1146.01,famous_female05.jpg
22,2,29,1,1,1,1,991.57,unknown_female13.jpg
22,1,30,2,2,2,1,957.1,famous_male17.jpg
22,2,31,1,3,3,1,1330.67,unknown_male09.jpg
22,1,32,1,3,3,1,1032.22,famous_male18.jpg
22,1,33,2,3,3,1,1197.74,famous_male13.jpg
22,2,34,1,3,3,1,1315.3,unknown_female12.jpg
22,2,35,2,4,4,1,1184.86,unknown_female07.jpg
22,2,36,1,4,4,1,1110.42,unknown_male05.jpg
22,2,37,1,2,2,1,875.96,unknown_female02.jpg
22,2,38,2,4,4,1,841.52,unknown_male08.jpg
22,2,39,1,2,2,1,928.08,unknown_male16.jpg
22,1,40,2,4,4,1,1269.62,famous_male19.jpg
22,1,41,1,1,1,1,819.18,famous_female19.jpg
22,2,42,1,1,1,1,960.73,unknown_female10.jpg
22,1,43,1,3,3,1,862.29,famous_male08.jpg
22,2,44,2,3,3,1,1115.84,unknown_female14.jpg
22,2,45,1,1,1,1,889.38,unknown_female16.jpg
22,1,46,1,4,4,1,950.94,famous_male15.jpg
22,1,47,2,3,3,1,900.49,famous_female10.jpg
22,2,48,2,3,3,1,938.05,unknown_male02.jpg
22,1,49,1,3,3,1,1279.59,famous_female02.jpg
22,2,50,2,1,1,1,997.16,unknown_male07.jpg
22,1,51,1,4,4,1,930.7,famous_male11.jpg
22,1,52,1,3,3,1,1248.26,famous_female08.jpg
22,1,53,2,1,1,1,957.81,famous_female16.jpg
22,1,54,2,2,2,1,1235.37,famous_female14.jpg
22,2,55,2,2,2,1,824.92,unknown_female17.jpg
22,1,56,1,2,2,1,862.46,famous_female15.jpg
22,1,57,2,1,1,1,1012.02,famous_male02.jpg
22,2,58,1,2,2,1,857.57,unknown_male06.jpg
22,2,59,2,2,2,1,767.14,unknown_male01.jpg
22,1,60,1,1,1,1,988.69,famous_male14.jpg
22,2,61,2,4,4,1,1114.26,unknown_female09.jpg
22,1,62,1,2,2,1,1079.82,famous_male04.jpg
22,2,63,1,4,4,1,829.35,unknown_male18.jpg
22,1,64,2,4,4,1,1131.13,famous_female07.jpg
22,1,65,2,1,1,1,840.48,famous_female13.jpg
22,2,66,1,4,4,1,974.04,unknown_female01.jpg
22,1,67,2,4,4,1,1043.56,famous_female03.jpg
22,2,68,2,1,1,1,1409.1,unknown_male20.jpg
22,1,69,1,3,3,1,846.65,famous_male01.jpg
22,1,70,2,3,3,1,1516.22,famous_male07.jpg
22,2,71,2,3,3,1,849.78,unknown_male11.jpg
22,1,72,2,1,1,1,943.32,famous_male12.jpg
22,2,73,1,2,2,1,1284.88,unknown_male17.jpg
22,2,74,2,2,2,1,930.43,unknown_female06.jpg
22,1,75,2,4,4,1,1023.98,famous_male05.jpg
22,2,76,1,4,4,1,1557.54,unknown_female18.jpg
22,2,77,1,1,1,1,1195.09,unknown_male19.jpg
22,2,78,2,1,1,1,952.63,unknown_female20.jpg
22,1,79,1,1,1,1,742.18,famous_male10.jpg
22,1,80,1,2,2,1,803.74,famous_female18.jpg
23,2,1,1,3,3,1,1693.96,unknown_female05.jpg
23,1,2,1,4,4,1,1699.56,famous_male15.jpg
23,1,3,2,3,3,1,2417.14,famous_male02.jpg
23,2,4,1,2,2,1,2310.68,unknown_female03.jpg
23,2,5,1,1,1,1,3876.16,unknown_female16.jpg
23,2,6,2,1,1,1,993.01,unknown_male17.jpg
23,1,7,2,3,3,1,1374.63,famous_female13.jpg
23,2,8,2,2,2,1,1356.18,unknown_male01.jpg
23,2,9,2,1,1,1,1753.72,unknown_female12.jpg
23,1,10,2,2,2,1,2591.3,famous_male20.jpg
23,2,11,2,4,4,1,1580.83,unknown_male07.jpg
23,1,12,2,4,4,1,2682.39,famous_female15.jpg
23,1,13,1,2,2,1,2615.88,famous_male14.jpg
23,2,14,1,4,4,1,2765.49,unknown_male03.jpg
23,2,15,2,4,4,1,1691.05,unknown_female18.jpg
23,1,16,2,2,2,1,2208.54,famous_female19.jpg
23,2,17,1,3,3,1,1558.16,unknown_male02.jpg
23,2,18,2,4,4,1,1115.74,unknown_female01.jpg
23,2,19,1,4,4,1,3241.26,unknown_female06.jpg
23,2,20,1,4,4,1,3334.85,unknown_female19.jpg
23,2,21,2,2,2,1,1988.34,unknown_male05.jpg
23,2,22,1,1,1,1,2553.91,unknown_male11.jpg
23,1,23,1,2,2,1,1727.49,famous_female12.jpg
23,1,24,2,1,1,1,1836.98,famous_male09.jpg
23,1,25,2,1,1,1,3258.55,famous_female18.jpg
23,1,26,1,4,4,1,2328.13,famous_female14.jpg
23,2,27,1,2,2,1,1501.68,unknown_male15.jpg
23,2,28,2,3,3,1,1491.25,unknown_female14.jpg
23,2,29,1,2,2,1,1792.77,unknown_male14.jpg
23,1,30,1,3,3,1,3070.31,famous_male01.jpg
23,2,31,1,1,1,1,1379.89,unknown_male18.jpg
23,1,32,2,4,4,1,2281.46,famous_female09.jpg
23,2,33,1,1,1,1,1391.01,unknown_female04.jpg
23,2,34,1,2,2,1,1788.52,unknown_male10.jpg
23,1,35,2,1,1,1,2474.08,famous_female20.jpg
23,2,36,2,2,2,1,1535.64,unknown_female17.jpg
23,2,37,2,3,3,1,1325.18,unknown_female09.jpg
23,2,38,1,3,3,1,1434.79,unknown_female13.jpg
23,2,39,2,1,1,1,832.32,unknown_female02.jpg
23,1,40,1,3,3,1,2213.89,famous_female08.jpg
23,2,41,1,3,3,1,1827.42,unknown_male04.jpg
23,1,42,2,4,4,1,1056.92,famous_male08.jpg
23,1,43,1,1,1,1,1686.53,famous_male05.jpg
23,1,44,1,2,2,1,1652.08,famous_female11.jpg
23,1,45,1,3,3,1,1977.63,famous_female01.jpg
23,1,46,2,1,1,1,1775.21,famous_female06.jpg
23,1,47,1,1,1,1,2052.75,famous_female17.jpg
23,1,48,2,4,4,1,3218.27,famous_male13.jpg
23,2,49,2,1,1,1,1199.86,unknown_male08.jpg
23,2,50,1,4,4,1,1917.34,unknown_female20.jpg
23,1,51,2,3,3,1,1690.97,famous_male19.jpg
23,1,52,2,2,2,1,1296.52,famous_male18.jpg
23,2,53,1,4,4,1,1574.08,unknown_male06.jpg
23,2,54,1,1,1,1,1595.61,unknown_female10.jpg
23,1,55,1,1,1,1,2417.17,famous_female02.jpg
23,2,56,2,3,3,1,1774.74,unknown_male13.jpg
23,2,57,2,4,4,1,1588.29,unknown_female08.jpg
23,2,58,2,3,3,1,865.82,unknown_male16.jpg
23,2,59,2,2,2,1,1015.37,unknown_female15.jpg
23,1,60,1,4,4,1,500.92,famous_male06.jpg
23,1,61,1,3,3,1,2002.51,famous_male12.jpg
23,1,62,2,2,2,1,2144.06,famous_male03.jpg
23,1,63,1,4,4,1,1581.61,famous_female07.jpg
23,1,64,1,2,2,1,1218.97,famous_male10.jpg
23,1,65,1,1,1,1,1504.63,famous_female03.jpg
23,1,66,1,4,4,1,1254.28,famous_female04.jpg
23,1,67,2,4,4,1,1491.77,famous_female16.jpg
23,1,68,1,2,2,1,1257.36,famous_male11.jpg
23,1,69,2,3,3,1,1342.91,famous_female05.jpg
23,2,70,1,3,3,1,836.43,unknown_male20.jpg
23,2,71,1,2,2,1,1130.01,unknown_female11.jpg
23,1,72,2,2,2,1,1271.57,famous_female10.jpg
23,2,73,2,2,2,1,757.12,unknown_male19.jpg
23,1,74,1,1,1,1,1178.61,famous_male17.jpg
23,1,75,2,3,3,1,1528.23,famous_male16.jpg
23,2,76,2,4,4,1,925.77,unknown_male12.jpg
23,2,77,2,3,3,1,891.25,unknown_male09.jpg
23,1,78,1,3,3,1,1832.88,famous_male07.jpg
23,2,79,2,1,1,1,878.42,unknown_female07.jpg
23,1,80,2,1,1,1,1363.99,famous_male04.jpg
24,1,1,1,2,2,1,819.8,famous_male03.jpg
24,1,2,2,4,4,1,785.36,famous_female09.jpg
24,1,3,1,3,3,1,854.97,famous_female19.jpg
24,1,4,1,4,4,1,740.53,famous_male14.jpg
24,2,5,2,3,3,1,1474.07,unknown_male12.jpg
24,2,6,2,1,1,1,1039.63,unknown_female07.jpg
24,2,7,2,3,3,1,877.12,unknown_male02.jpg
24,2,8,2,4,4,1,994.7,unknown_female16.jpg
24,2,9,2,4,4,1,944.28,unknown_female01.jpg
24,1,10,2,3,3,1,1323.31,famous_male08.jpg
24,1,11,1,4,4,1,680.9,famous_male18.jpg
24,2,12,2,4,4,1,1158.46,unknown_male19.jpg
24,2,13,1,4,4,1,620.01,unknown_male16.jpg
24,1,14,2,3,3,1,985.56,famous_female12.jpg
24,1,15,1,2,2,1,847.12,famous_female16.jpg
24,2,16,1,1,1,1,980.6,unknown_female15.jpg
24,2,17,1,1,1,1,674.21,unknown_female10.jpg
24,2,18,2,1,1,1,1295.77,unknown_female09.jpg
24,2,19,1,2,2,1,797.33,unknown_male18.jpg
24,1,20,1,3,3,1,1106.85,famous_male19.jpg
24,2,21,1,1,1,1,1200.42,unknown_male05.jpg
24,2,22,2,2,2,1,957.98,unknown_male17.jpg
24,2,23,1,2,2,1,819.54,unknown_male09.jpg
24,2,24,2,2,2,1,1089.05,unknown_male03.jpg
24,1,25,2,1,1,1,1094.64,famous_female18.jpg
24,2,26,2,2,2,1,756.2,unknown_male10.jpg
24,1,27,1,1,1,1,745.74,famous_female07.jpg
24,1,28,2,1,1,1,1255.29,famous_male07.jpg
24,2,29,1,4,4,1,1204.86,unknown_male08.jpg
24,2,30,2,1,1,1,1130.4,unknown_female04.jpg
24,2,31,2,1,1,1,1087.97,unknown_male15.jpg
24,2,32,1,3,3,1,1133.52,unknown_male14.jpg
24,1,33,2,4,4,1,1203.02,famous_male13.jpg
24,1,34,2,3,3,1,760.64,famous_male12.jpg
24,1,35,1,4,4,1,918.18,famous_female05.jpg
24,1,36,1,1,1,1,659.73,famous_male20.jpg
24,2,37,2,3,3,1,1017.28,unknown_female11.jpg
24,1,38,1,1,1,1,1014.83,famous_male02.jpg
24,2,39,2,2,2,1,1252.36,unknown_female20.jpg
24,2,40,2,4,4,1,1089.94,unknown_female13.jpg
24,2,41,2,3,3,1,1135.47,unknown_male06.jpg
24,2,42,1,3,3,1,1253.05,unknown_female18.jpg
24,1,43,2,2,2,1,674.54,famous_male05.jpg
24,1,44,2,1,1,1,856.16,famous_female04.jpg
24,2,45,1,2,2,1,917.7,unknown_female06.jpg
24,2,46,1,1,1,1,1019.21,unknown_female19.jpg
24,2,47,2,2,2,1,1216.77,unknown_female12.jpg
24,1,48,1,2,2,1,870.36,famous_male10.jpg
24,1,49,1,3,3,1,1147.93,famous_female20.jpg
24,2,50,1,3,3,1,761.48,unknown_male01.jpg
24,2,51,1,4,4,1,1007.03,unknown_female14.jpg
24,1,52,1,1,1,1,1044.58,famous_female10.jpg
24,1,53,1,3,3,1,834.14,famous_male06.jpg
24,1,54,1,2,2,1,799.67,famous_female02.jpg
24,2,55,1,2,2,1,709.24,unknown_female17.jpg
24,1,56,2,1,1,1,1026.78,famous_female17.jpg
24,1,57,2,3,3,1,1216.34,famous_female11.jpg
24,1,58,2,2,2,1,685.89,famous_female01.jpg
24,2,59,2,1,1,1,875.46,unknown_male11.jpg
24,1,60,2,4,4,1,968.99,famous_female08.jpg
24,2,61,2,3,3,1,550.53,unknown_female02.jpg
24,2,62,1,3,3,1,908.14,unknown_female05.jpg
24,1,63,1,2,2,1,905.65,famous_male11.jpg
24,1,64,2,2,2,1,895.18,famous_male16.jpg
24,2,65,1,3,3,1,740.79,unknown_male13.jpg
24,1,66,2,2,2,1,946.32,famous_female13.jpg
24,1,67,1,1,1,1,567.83,famous_female14.jpg
24,1,68,1,4,4,1,837.38,famous_female06.jpg
24,2,69,1,1,1,1,970.98,unknown_male07.jpg
24,2,70,1,4,4,1,704.52,unknown_female03.jpg
24,1,71,2,4,4,1,886.07,famous_female03.jpg
24,2,72,1,4,4,1,947.63,unknown_female08.jpg
24,1,73,2,1,1,1,953.18,famous_male15.jpg
24,1,74,1,3,3,1,806.77,famous_male09.jpg
24,1,75,1,4,4,1,772.3,famous_female15.jpg
24,1,76,2,3,3,1,977.85,famous_male01.jpg
24,1,77,2,2,2,1,863.37,famous_male04.jpg
24,1,78,2,4,4,1,1380.95,famous_male17.jpg
24,2,79,1,2,2,1,3306.38,unknown_male20.jpg
24,2,80,2,4,4,1,1272.06,unknown_male04.jpg
25,2,1,2,3,3,1,714.65,unknown_female04.jpg
25,1,2,1,2,2,1,880.26,famous_female02.jpg
25,1,3,1,4,4,1,757.82,famous_female01.jpg
25,1,4,2,1,1,1,787.38,famous_female07.jpg
25,2,5,1,2,2,1,776.92,unknown_female09.jpg
25,2,6,2,4,4,1,621.71,unknown_male04.jpg
25,1,7,1,2,2,1,579.34,famous_male03.jpg
25,2,8,2,3,3,1,640.88,unknown_male09.jpg
25,1,9,1,3,3,1,670.43,famous_female15.jpg
25,1,10,2,2,2,1,587.99,famous_female12.jpg
25,2,11,2,1,1,1,577.55,unknown_female06.jpg
25,1,12,1,4,4,1,735.11,famous_male04.jpg
25,2,13,2,3,3,1,516.65,unknown_female07.jpg
25,2,14,1,2,2,1,666.22,unknown_male12.jpg
25,1,15,2,4,4,1,639.76,famous_female03.jpg
25,2,16,2,4,4,1,781.31,unknown_female13.jpg
25,1,17,2,2,2,1,498.87,famous_female06.jpg
25,2,18,1,1,1,1,536.43,unknown_female20.jpg
25,1,19,1,3,3,1,661.96,famous_male01.jpg
25,2,20,1,4,4,1,731.51,unknown_female12.jpg
25,2,21,1,3,3,1,569.04,unknown_male15.jpg
25,1,22,2,2,2,1,414.59,famous_male17.jpg
25,2,23,1,4,4,1,484.22,unknown_female08.jpg
25,2,24,1,3,3,1,521.73,unknown_male14.jpg
25,1,25,2,3,3,1,503.28,famous_female16.jpg
25,2,26,2,1,1,1,620.84,unknown_male05.jpg
25,2,27,2,4,4,1,722.39,unknown_male06.jpg
25,2,28,1,4,4,1,487.88,unknown_male10.jpg
25,1,29,1,3,3,1,517.51,famous_male12.jpg
25,2,30,2,1,1,1,539.05,unknown_female15.jpg
25,2,31,1,1,1,1,544.6,unknown_male03.jpg
25,1,32,1,1,1,1,662.15,famous_female18.jpg
25,1,33,1,2,2,1,579.71,famous_male08.jpg
25,2,34,2,1,1,1,513.26,unknown_male07.jpg
25,1,35,2,4,4,1,622.83,famous_male10.jpg
25,2,36,2,4,4,1,604.4,unknown_female16.jpg
25,2,37,2,3,3,1,497.92,unknown_male01.jpg
25,2,38,2,1,1,1,663.47,unknown_female05.jpg
25,1,39,2,1,1,1,477.04,famous_female19.jpg
25,2,40,2,3,3,1,530.57,unknown_male17.jpg
25,2,41,1,2,2,1,560.13,unknown_male20.jpg
25,1,42,2,3,3,1,493.65,famous_male16.jpg
25,1,43,1,4,4,1,555.23,famous_female10.jpg
25,2,44,1,1,3,0,1360.73,unknown_male18.jpg
25,1,45,2,3,3,1,582.34,famous_male15.jpg
25,1,46,2,4,4,1,667.87,famous_female04.jpg
25,2,47,2,2,2,1,545.46,unknown_male02.jpg
25,1,48,2,3,3,1,463,famous_male19.jpg
25,1,49,2,3,3,1,572.49,famous_female08.jpg
25,1,50,1,2,2,1,618.1,famous_male20.jpg
25,2,51,1,4,4,1,719.66,unknown_female01.jpg
25,1,52,1,3,3,1,757.21,famous_male07.jpg
25,2,53,1,3,3,1,506.79,unknown_female02.jpg
25,1,54,1,4,4,1,1240.26,famous_male13.jpg
25,2,55,1,4,4,1,645.86,unknown_male08.jpg
25,1,56,1,1,1,1,619.43,famous_male06.jpg
25,2,57,2,2,2,1,616.95,unknown_male13.jpg
25,1,58,1,1,1,1,718.52,famous_male11.jpg
25,2,59,1,2,2,1,548.05,unknown_female03.jpg
25,1,60,1,3,3,1,489.62,famous_female09.jpg
25,1,61,1,1,1,1,903.15,famous_female05.jpg
25,1,62,2,2,2,1,508.74,famous_male02.jpg
25,2,63,1,2,2,1,506.31,unknown_male16.jpg
25,2,64,2,2,2,1,439.86,unknown_male11.jpg
25,2,65,1,3,3,1,685.36,unknown_female17.jpg
25,2,66,1,3,3,1,730.95,unknown_male19.jpg
25,2,67,2,4,4,1,704.51,unknown_female14.jpg
25,1,68,2,2,2,1,918.07,famous_male05.jpg
25,1,69,1,4,4,1,923.63,famous_female20.jpg
25,1,70,2,1,1,1,577.14,famous_male09.jpg
25,2,71,1,1,1,1,534.67,unknown_female19.jpg
25,2,72,1,1,1,1,452.27,unknown_female10.jpg
25,1,73,1,1,1,1,489.82,famous_female11.jpg
25,1,74,2,1,1,1,519.37,famous_male14.jpg
25,1,75,2,4,4,1,724.93,famous_male18.jpg
25,1,76,2,4,4,1,626.48,famous_female17.jpg
25,2,77,2,2,2,1,808.03,unknown_female18.jpg
25,2,78,2,2,2,1,453.52,unknown_female11.jpg
25,1,79,2,1,1,1,475.12,famous_female14.jpg
25,1,80,1,2,2,1,344.71,famous_female13.jpg
26,1,1,1,3,3,1,1255.27,famous_male18.jpg
26,1,2,2,4,4,1,3860.82,famous_female14.jpg
26,1,3,1,2,0,0,0,famous_male15.jpg
26,2,4,1,3,0,0,0,unknown_female13.jpg
26,2,5,1,4,4,1,4437.43,unknown_female05.jpg
26,1,6,1,2,0,0,0,famous_female16.jpg
26,1,7,1,4,0,0,0,famous_female05.jpg
26,2,8,1,1,0,0,0,unknown_female02.jpg
26,2,9,2,2,0,0,0,unknown_male18.jpg
26,2,10,1,2,0,0,0,unknown_male10.jpg
26,1,11,2,1,1,1,3934.75,famous_male13.jpg
26,2,12,2,1,0,0,0,unknown_female18.jpg
26,2,13,2,1,0,0,0,unknown_male19.jpg
26,2,14,2,3,0,0,0,unknown_male12.jpg
26,1,15,2,1,0,0,0,famous_male09.jpg
26,1,16,2,4,4,1,3938.56,famous_female13.jpg
26,1,17,1,2,0,0,0,famous_male01.jpg
26,1,18,1,3,3,1,3861.69,famous_female07.jpg
26,2,19,1,2,2,1,4099.23,unknown_male11.jpg
26,2,20,1,2,0,0,0,unknown_female14.jpg
26,2,21,1,1,0,0,0,unknown_female03.jpg
26,1,22,1,4,0,0,0,famous_female06.jpg
26,1,23,2,2,0,0,0,famous_female09.jpg
26,2,24,1,3,3,1,4062.97,unknown_male13.jpg
26,1,25,1,2,2,1,3804.52,famous_female18.jpg
26,2,26,2,2,0,0,0,unknown_female15.jpg
26,2,27,2,4,4,1,3975.62,unknown_female01.jpg
26,2,28,1,4,0,0,0,unknown_female08.jpg
26,1,29,1,3,3,1,3882.78,famous_female17.jpg
26,2,30,2,4,4,1,3768.28,unknown_male03.jpg
26,2,31,2,2,2,1,3781.85,unknown_male09.jpg
26,1,32,2,3,3,1,3899.39,famous_male06.jpg
26,1,33,2,4,4,1,3952.92,famous_male20.jpg
26,2,34,2,4,0,0,0,unknown_female17.jpg
26,2,35,2,1,0,0,0,unknown_female12.jpg
26,1,36,1,1,0,0,0,famous_female12.jpg
26,2,37,2,1,1,1,4399.15,unknown_male02.jpg
26,1,38,1,1,1,1,4484.7,famous_male05.jpg
26,1,39,2,1,0,0,0,famous_female01.jpg
26,2,40,2,3,3,1,4439.78,unknown_male15.jpg
26,2,41,2,1,0,0,0,unknown_female20.jpg
26,1,42,1,1,1,1,4274.88,famous_male02.jpg
26,1,43,2,3,3,1,4440.43,famous_male12.jpg
26,2,44,2,4,4,1,3822.02,unknown_male08.jpg
26,2,45,1,3,3,1,2667.5,unknown_male01.jpg
26,2,46,2,4,4,1,3905.15,unknown_female11.jpg
26,2,47,2,2,2,1,3990.69,unknown_female10.jpg
26,1,48,1,3,3,1,3980.22,famous_male07.jpg
26,2,49,1,1,1,1,4057.68,unknown_male16.jpg
26,2,50,1,4,4,1,3839.35,unknown_female16.jpg
26,2,51,1,2,2,1,3804.87,unknown_male05.jpg
26,1,52,2,2,2,1,3970.36,famous_male14.jpg
26,2,53,2,3,3,1,3872.01,unknown_female04.jpg
26,1,54,2,2,2,1,3917.48,famous_male16.jpg
26,1,55,1,4,4,1,4443.1,famous_female19.jpg
26,1,56,2,4,4,1,3912.66,famous_male04.jpg
26,2,57,1,3,3,1,3934.21,unknown_male07.jpg
26,1,58,2,4,4,1,3859.76,famous_female20.jpg
26,1,59,1,4,4,1,4153.33,famous_male10.jpg
26,2,60,1,1,1,1,3774.86,unknown_male17.jpg
26,2,61,1,3,3,1,3836.42,unknown_female09.jpg
26,1,62,1,2,2,1,3817.97,famous_male08.jpg
26,1,63,2,3,3,1,3879.53,famous_female02.jpg
26,1,64,2,2,2,1,3773.07,famous_female11.jpg
26,1,65,2,1,1,1,3834.64,famous_female08.jpg
26,2,66,2,3,3,1,3879.46,unknown_female06.jpg
26,2,67,1,4,4,1,3845.02,unknown_male20.jpg
26,1,68,2,3,3,1,3754.6,famous_female04.jpg
26,2,69,2,3,3,1,3896.16,unknown_male04.jpg
26,1,70,2,2,2,1,3741.7,famous_male11.jpg
26,2,71,1,1,1,1,3859.25,unknown_female19.jpg
26,2,72,2,2,2,1,4016.78,unknown_male06.jpg
26,1,73,1,4,4,1,3974.25,famous_male17.jpg
26,1,74,1,1,1,1,4227.83,famous_female15.jpg
26,2,75,1,2,2,1,3921.48,unknown_female07.jpg
26,2,76,1,4,4,1,4023.01,unknown_male14.jpg
26,1,77,1,3,3,1,3860.56,famous_male19.jpg
26,1,78,2,1,1,1,4010.12,famous_female10.jpg
26,1,79,1,1,1,1,3799.67,famous_female03.jpg
26,1,80,2,3,3,1,3781.22,famous_male03.jpg
27,2,1,1,4,4,1,703.77,unknown_male03.jpg
27,2,2,2,3,3,1,1261.34,unknown_female15.jpg
27,2,3,1,3,3,1,978.9,unknown_female09.jpg
27,1,4,2,1,1,1,1160.45,famous_female20.jpg
27,2,5,1,1,1,1,766.07,unknown_female04.jpg
27,1,6,2,4,4,1,1186.87,famous_male12.jpg
27,1,7,1,1,1,1,792.41,famous_male15.jpg
27,2,8,1,1,1,1,973.88,unknown_female14.jpg
27,1,9,1,2,2,1,795.52,famous_female04.jpg
27,2,10,2,4,4,1,1017.04,unknown_female06.jpg
27,1,11,2,2,2,1,1166.63,famous_male10.jpg
27,1,12,2,3,3,1,1060.12,famous_male13.jpg
27,1,13,2,3,3,1,937.72,famous_male06.jpg
27,2,14,1,3,3,1,871.24,unknown_male10.jpg
27,1,15,1,2,2,1,868.83,famous_male17.jpg
27,2,16,1,2,2,1,770.32,unknown_male02.jpg
27,2,17,1,4,4,1,1007.94,unknown_female13.jpg
27,1,18,1,1,1,1,1541.44,famous_male08.jpg
27,2,19,1,4,4,1,1091.05,unknown_female08.jpg
27,2,20,2,2,2,1,984.6,unknown_female20.jpg
27,2,21,2,1,1,1,1518.19,unknown_male01.jpg
27,1,22,1,3,3,1,1203.72,famous_male04.jpg
27,1,23,1,1,1,1,1065.28,famous_female12.jpg
27,1,24,1,3,3,1,1142.77,famous_male07.jpg
27,1,25,1,4,4,1,820.36,famous_male09.jpg
27,1,26,1,4,4,1,1281.92,famous_female10.jpg
27,1,27,2,1,1,1,1527.48,famous_female07.jpg
27,1,28,2,1,1,1,789.03,famous_male02.jpg
27,2,29,2,4,4,1,1402.59,unknown_female07.jpg
27,2,30,1,1,1,1,1144.07,unknown_male16.jpg
27,1,31,2,2,2,1,877.68,famous_male19.jpg
27,2,32,2,2,2,1,1083.23,unknown_male04.jpg
27,1,33,1,4,4,1,888.73,famous_female05.jpg
27,2,34,1,2,2,1,910.35,unknown_female16.jpg
27,1,35,2,2,2,1,683.89,famous_male16.jpg
27,1,36,2,4,4,1,793.46,famous_female11.jpg
27,2,37,2,1,1,1,1054.96,unknown_female05.jpg
27,2,38,2,2,2,1,1188.53,unknown_male08.jpg
27,2,39,1,2,2,1,1018.1,unknown_male15.jpg
27,2,40,2,1,1,1,1199.66,unknown_male12.jpg
27,1,41,2,2,2,1,877.21,famous_female14.jpg
27,2,42,2,1,1,1,1346.77,unknown_female19.jpg
27,1,43,2,3,3,1,1080.31,famous_female18.jpg
27,2,44,1,2,2,1,1125.83,unknown_male18.jpg
27,2,45,1,4,4,1,1048.87,unknown_male19.jpg
27,1,46,2,3,3,1,942.44,famous_female06.jpg
27,1,47,1,4,4,1,852.04,famous_male20.jpg
27,2,48,2,3,3,1,1097.61,unknown_male14.jpg
27,2,49,1,3,3,1,863.14,unknown_male20.jpg
27,1,50,1,2,2,1,1036.64,famous_male05.jpg
27,2,51,1,3,3,1,1514.27,unknown_male17.jpg
27,1,52,1,3,3,1,815.77,famous_male11.jpg
27,1,53,1,2,2,1,1045.36,famous_male14.jpg
27,1,54,1,1,1,1,946.93,famous_female16.jpg
27,2,55,2,3,3,1,816.43,unknown_female11.jpg
27,1,56,1,2,2,1,1021.99,famous_female08.jpg
27,1,57,1,1,1,1,1203.51,famous_female03.jpg
27,1,58,1,4,4,1,753.15,famous_female01.jpg
27,2,59,1,2,2,1,1102.66,unknown_female02.jpg
27,1,60,2,1,1,1,1612.23,famous_female15.jpg
27,1,61,1,3,3,1,953.79,famous_female17.jpg
27,2,62,2,3,3,1,1063.34,unknown_male06.jpg
27,1,63,2,4,4,1,844.83,famous_male18.jpg
27,2,64,2,3,3,1,994.45,unknown_male07.jpg
27,2,65,1,3,3,1,1072.02,unknown_female01.jpg
27,2,66,2,1,1,1,1461.56,unknown_female12.jpg
27,2,67,2,4,4,1,1771.1,unknown_female17.jpg
27,2,68,1,1,1,1,1368.66,unknown_male11.jpg
27,1,69,2,4,4,1,1030.15,famous_female02.jpg
27,1,70,2,2,2,1,1235.63,famous_female13.jpg
27,2,71,1,1,1,1,849.26,unknown_female03.jpg
27,1,72,2,3,3,1,1182.86,famous_male03.jpg
27,2,73,2,2,2,1,1052.44,unknown_male13.jpg
27,1,74,1,3,3,1,1001.95,famous_female09.jpg
27,2,75,2,2,2,1,1575.53,unknown_female18.jpg
27,2,76,1,4,4,1,845.08,unknown_female10.jpg
27,1,77,2,1,1,1,1194.63,famous_male01.jpg
27,2,78,2,4,4,1,1456.2,unknown_male05.jpg
27,2,79,2,4,4,1,1037.74,unknown_male09.jpg
27,1,80,2,4,4,1,611.29,famous_female19.jpg
28,2,1,2,4,4,1,1362.99,unknown_female10.jpg
28,2,2,1,2,2,1,1744.63,unknown_female18.jpg
28,2,3,1,3,3,1,1334.13,unknown_female02.jpg
28,1,4,1,3,3,1,1171.73,famous_female05.jpg
28,1,5,2,4,4,1,1273.27,famous_female01.jpg
28,1,6,2,3,3,1,1302.78,famous_female18.jpg
28,2,7,1,2,2,1,1460.39,unknown_female13.jpg
28,2,8,2,3,3,1,1305.94,unknown_male10.jpg
28,2,9,1,4,4,1,1143.42,unknown_male07.jpg
28,1,10,2,4,4,1,997.06,famous_female15.jpg
28,1,11,2,3,3,1,1450.58,famous_male14.jpg
28,1,12,1,2,2,1,792.13,famous_female07.jpg
28,2,13,2,2,2,1,925.71,unknown_male14.jpg
28,2,14,2,2,2,1,923.25,unknown_male05.jpg
28,1,15,1,2,2,1,1232.76,famous_male07.jpg
28,1,16,1,3,3,1,1334.37,famous_female06.jpg
28,2,17,2,2,2,1,771.91,unknown_female05.jpg
28,1,18,1,1,1,1,1177.46,famous_female14.jpg
28,2,19,1,1,1,1,943.01,unknown_female09.jpg
28,1,20,1,3,3,1,956.53,famous_male08.jpg
28,1,21,2,4,4,1,1098.11,famous_female17.jpg
28,2,22,1,1,1,1,1719.67,unknown_male20.jpg
28,2,23,2,4,4,1,933.19,unknown_female20.jpg
28,2,24,2,3,3,1,930.78,unknown_male08.jpg
28,2,25,2,1,1,1,1000.32,unknown_male02.jpg
28,2,26,1,3,3,1,917.89,unknown_male04.jpg
28,2,27,1,3,3,1,963.43,unknown_male09.jpg
28,2,28,1,1,1,1,849,unknown_female07.jpg
28,1,29,2,4,4,1,1150.55,famous_male06.jpg
28,2,30,2,2,2,1,964.09,unknown_male18.jpg
28,2,31,2,1,1,1,897.6,unknown_male17.jpg
28,1,32,2,1,1,1,943.2,famous_female10.jpg
28,1,33,1,4,4,1,1004.75,famous_female12.jpg
28,2,34,2,2,2,1,1434.31,unknown_female19.jpg
28,1,35,2,2,2,1,783.82,famous_male20.jpg
28,1,36,1,2,2,1,629.38,famous_male03.jpg
28,1,37,1,4,4,1,842.98,famous_male02.jpg
28,1,38,2,3,3,1,992.54,famous_female20.jpg
28,1,39,2,2,2,1,838.09,famous_male19.jpg
28,2,40,2,3,3,1,723.62,unknown_female04.jpg
28,2,41,1,1,1,1,1001.2,unknown_female11.jpg
28,2,42,2,3,3,1,838.73,unknown_female12.jpg
28,1,43,1,1,1,1,908.28,famous_male15.jpg
28,1,44,1,4,4,1,809.83,famous_female16.jpg
28,1,45,2,1,1,1,1151.34,famous_male12.jpg
28,2,46,1,4,4,1,940.95,unknown_male13.jpg
28,1,47,2,2,2,1,778.51,famous_male16.jpg
28,2,48,2,1,1,1,848.06,unknown_female01.jpg
28,2,49,1,1,1,1,717.53,unknown_male03.jpg
28,1,50,2,2,2,1,947.14,famous_female04.jpg
28,1,51,1,4,4,1,960.67,famous_female11.jpg
28,2,52,1,2,2,1,814.2,unknown_male01.jpg
28,2,53,2,4,4,1,739.82,unknown_male11.jpg
28,2,54,2,4,4,1,721.37,unknown_female03.jpg
28,2,55,1,3,3,1,542.85,unknown_female06.jpg
28,2,56,1,4,4,1,620.48,unknown_female16.jpg
28,1,57,1,1,1,1,834,famous_female09.jpg
28,2,58,1,2,2,1,807.55,unknown_male06.jpg
28,2,59,2,1,1,1,1157.13,unknown_female14.jpg
28,2,60,2,4,4,1,698.68,unknown_male15.jpg
28,1,61,1,3,3,1,952.24,famous_male05.jpg
28,1,62,1,2,2,1,869.8,famous_female19.jpg
28,2,63,2,3,3,1,635.34,unknown_male16.jpg
28,1,64,1,2,2,1,960.84,famous_male09.jpg
28,2,65,1,4,4,1,1782.41,unknown_female15.jpg
28,1,66,1,1,1,1,1596,famous_male18.jpg
28,1,67,2,3,3,1,601.55,famous_male13.jpg
28,2,68,1,3,3,1,759.1,unknown_male12.jpg
28,1,69,1,1,1,1,628.66,famous_female08.jpg
28,2,70,2,1,1,1,954.25,unknown_female08.jpg
28,1,71,1,4,4,1,1319.77,famous_male17.jpg
28,1,72,2,1,1,1,1565.33,famous_female02.jpg
28,1,73,1,3,3,1,1410.87,famous_male04.jpg
28,1,74,2,1,1,1,880.43,famous_female03.jpg
28,2,75,1,4,4,1,1277.96,unknown_female17.jpg
28,1,76,2,3,3,1,715.54,famous_male01.jpg
28,1,77,2,1,1,1,1201.05,famous_male11.jpg
28,1,78,2,2,2,1,814.57,famous_female13.jpg
28,1,79,2,4,4,1,1132.13,famous_male10.jpg
28,2,80,1,2,2,1,1081.75,unknown_male19.jpg