sn,age,sex,cond,trial,repcond,imcat,imnum,loc,resp,corr,rt,imname
 1,25,2,1, 1,1,2,21,4,4,1,1127.69,unknown_female21.jpg
 1,25,2,1, 2,2,1,18,4,4,1,867.79,unknown_male18.jpg
 1,25,2,1, 3,1,1,21,1,1,1,879.91,unknown_male21.jpg
 1,25,2,1, 4,1,1,20,1,1,1,540.00,unknown_male20.jpg
 1,25,2,1, 5,2,1, 6,4,4,1,840.05,unknown_male06.jpg
 1,25,2,1, 6,2,2,24,4,4,1,644.18,unknown_female24.jpg
 1,25,2,1, 7,1,2,14,2,2,1,752.27,unknown_female14.jpg
 1,25,2,1, 8,1,1,17,1,1,1,860.36,unknown_male17.jpg
 1,25,2,1, 9,1,1,14,4,4,1,1056.43,unknown_male14.jpg
 1,25,2,1,10,2,2,17,1,1,1,900.49,unknown_female17.jpg
 1,25,2,1,11,2,1,23,3,3,1,784.50,unknown_male23.jpg
 1,25,2,1,12,1,2, 4,2,2,1,628.69,unknown_female04.jpg
 1,25,2,1,13,1,1,16,3,3,1,528.79,unknown_male16.jpg
 1,25,2,1,14,1,1, 9,2,2,1,628.87,unknown_male09.jpg
 1,25,2,1,15,2,1, 5,4,4,1,552.95,unknown_male05.jpg
 1,25,2,1,16,2,2, 8,4,4,1,452.98,unknown_female08.jpg
 1,25,2,1,17,1,1, 1,2,2,1,873.13,unknown_male01.jpg
 1,25,2,1,18,2,1,24,1,1,1,1677.18,unknown_male24.jpg
 1,25,2,1,19,2,2,10,2,2,1,857.30,unknown_female10.jpg
 1,25,2,1,20,1,2,23,1,1,1,549.36,unknown_female23.jpg
 1,25,2,1,21,1,2,19,4,4,1,673.49,unknown_female19.jpg
 1,25,2,1,22,1,1,13,3,3,1,437.57,unknown_male13.jpg
 1,25,2,1,23,1,2,12,2,2,1,521.65,unknown_female12.jpg
 1,25,2,1,24,1,2,18,4,4,1,525.74,unknown_female18.jpg
 1,25,2,1,25,2,2,13,3,3,1,809.79,unknown_female13.jpg
 1,25,2,1,26,2,2,15,3,3,1,493.92,unknown_female15.jpg
 1,25,2,1,27,2,1, 8,2,2,1,834.01,unknown_male08.jpg
 1,25,2,1,28,1,2,16,3,3,1,1086.10,unknown_female16.jpg
 1,25,2,1,29,2,2,20,1,1,1,818.13,unknown_female20.jpg
 1,25,2,1,30,2,1, 2,2,2,1,918.25,unknown_male02.jpg
 1,25,2,1,31,2,2, 9,3,3,1,562.35,unknown_female09.jpg
 1,25,2,1,32,2,2, 2,4,4,1,686.38,unknown_female02.jpg
 1,25,2,1,33,1,1, 4,3,3,1,506.53,unknown_male04.jpg
 1,25,2,1,34,1,1,15,4,4,1,630.62,unknown_male15.jpg
 1,25,2,1,35,1,2,22,3,3,1,418.71,unknown_female22.jpg
 1,25,2,1,36,1,1,12,2,2,1,534.78,unknown_male12.jpg
 1,25,2,1,37,2,2, 3,2,2,1,554.88,unknown_female03.jpg
 1,25,2,1,38,1,2, 5,1,1,1,702.97,unknown_female05.jpg
 1,25,2,1,39,2,1, 3,1,1,1,411.05,unknown_male03.jpg
 1,25,2,1,40,2,1,10,3,3,1,599.11,unknown_male10.jpg
 1,25,2,1,41,2,1, 7,2,2,1,1683.24,unknown_male07.jpg
 1,25,2,1,42,1,2, 6,3,3,1,999.32,unknown_female06.jpg
 1,25,2,1,43,2,1,19,3,3,1,507.41,unknown_male19.jpg
 1,25,2,1,44,2,1,11,1,1,1,503.49,unknown_male11.jpg
 1,25,2,1,45,1,2, 1,1,1,1,363.57,unknown_female01.jpg
 1,25,2,1,46,2,2,11,1,1,1,671.67,unknown_female11.jpg
 1,25,2,1,47,1,1,22,4,4,1,891.75,unknown_male22.jpg
 1,25,2,1,48,2,2, 7,2,2,1,687.84,unknown_female07.jpg
 2,25,1,2, 1,2,1,21,1,1,1,1053.59,famous_male21.jpg
 2,25,1,2, 2,1,1,22,1,1,1,57.73,famous_male22.jpg
 2,25,1,2, 3,1,2, 5,3,3,1,717.83,famous_female05.jpg
 2,25,1,2, 4,2,2,23,3,3,1,745.88,famous_female23.jpg
 2,25,1,2, 5,1,1,19,4,4,1,573.93,famous_male19.jpg
 2,25,1,2, 6,1,2,18,2,2,1,770.08,famous_female18.jpg
 2,25,1,2, 7,1,2, 8,4,4,1,998.17,famous_female08.jpg
 2,25,1,2, 8,1,1, 7,3,3,1,946.26,famous_male07.jpg
 2,25,1,2, 9,2,1, 8,3,3,1,830.32,famous_male08.jpg
 2,25,1,2,10,1,2,24,1,1,1,714.43,famous_female24.jpg
 2,25,1,2,11,2,1,20,4,4,1,886.52,famous_male20.jpg
 2,25,1,2,12,2,2,15,2,2,1,714.55,famous_female15.jpg
 2,25,1,2,13,2,2,12,4,4,1,1022.69,famous_female12.jpg
 2,25,1,2,14,2,2, 7,4,4,1,1026.79,famous_female07.jpg
 2,25,1,2,15,1,2,14,2,2,1,718.87,famous_female14.jpg
 2,25,1,2,16,2,2,19,1,1,1,706.97,famous_female19.jpg
 2,25,1,2,17,2,2,17,4,4,1,703.05,famous_female17.jpg
 2,25,1,2,18,2,2, 4,2,2,1,931.13,famous_female04.jpg
 2,25,1,2,19,1,1, 4,4,4,1,895.22,famous_male04.jpg
 2,25,1,2,20,1,2,22,2,2,1,987.31,famous_female22.jpg
 2,25,1,2,21,2,1, 2,1,1,1,615.40,famous_male02.jpg
 2,25,1,2,22,1,1,23,2,2,1,715.49,famous_male23.jpg
 2,25,1,2,23,1,1,16,3,3,1,775.54,famous_male16.jpg
 2,25,1,2,24,1,2, 3,4,4,1,747.67,famous_female03.jpg
 2,25,1,2,25,2,2, 1,2,2,1,1231.77,famous_female01.jpg
 2,25,1,2,26,1,2,13,1,1,1,707.86,famous_female13.jpg
 2,25,1,2,27,1,1, 5,2,2,1,703.91,famous_male05.jpg
 2,25,1,2,28,2,1, 1,2,2,1,932.00,famous_male01.jpg
 2,25,1,2,29,2,1,17,2,2,1,880.08,famous_male17.jpg
 2,25,1,2,30,2,1,13,3,3,1,548.15,famous_male13.jpg
 2,25,1,2,31,2,2,16,3,3,1,1256.30,famous_female16.jpg
 2,25,1,2,32,2,2, 2,1,1,1,1244.38,famous_female02.jpg
 2,25,1,2,33,2,1,10,2,2,1,1024.46,famous_male10.jpg
 2,25,1,2,34,2,1, 6,4,4,1,668.53,famous_male06.jpg
 2,25,1,2,35,2,1,14,4,4,1,1016.64,famous_male14.jpg
 2,25,1,2,36,1,2,11,3,3,1,1092.70,famous_female11.jpg
 2,25,1,2,37,2,1,12,1,1,1,528.76,famous_male12.jpg
 2,25,1,2,38,1,2,21,1,1,1,932.88,famous_female21.jpg
 2,25,1,2,39,1,2, 6,4,4,1,856.97,famous_female06.jpg
 2,25,1,2,40,1,1,18,4,4,1,725.06,famous_male18.jpg
 2,25,1,2,41,2,1, 3,3,3,1,793.14,famous_male03.jpg
 2,25,1,2,42,1,1,11,2,2,1,541.24,famous_male11.jpg
 2,25,1,2,43,1,1,15,1,1,1,633.26,famous_male15.jpg
 2,25,1,2,44,1,1,24,3,3,1,1253.38,famous_male24.jpg
 2,25,1,2,45,1,2,20,3,3,1,801.48,famous_female20.jpg
 2,25,1,2,46,2,2, 9,3,3,1,1109.58,famous_female09.jpg
 2,25,1,2,47,2,2,10,1,1,1,817.69,famous_female10.jpg
 2,25,1,2,48,1,1, 9,1,1,1,1109.76,famous_male09.jpg
 3,24,2,1, 1,2,1,16,2,2,1,633.80,unknown_male16.jpg
 3,24,2,1, 2,1,2,19,2,2,1,989.92,unknown_female19.jpg
 3,24,2,1, 3,2,2,21,3,3,1,2290.02,unknown_female21.jpg
 3,24,2,1, 4,1,2,13,3,3,1,982.04,unknown_female13.jpg
 3,24,2,1, 5,1,1,18,1,1,1,2826.20,unknown_male18.jpg
 3,24,2,1, 6,1,1,11,3,3,1,630.28,unknown_male11.jpg
 3,24,2,1, 7,1,2,15,1,1,1,522.37,unknown_female15.jpg
 3,24,2,1, 8,2,1, 2,2,2,1,550.42,unknown_male02.jpg
 3,24,2,1, 9,2,2,10,3,3,1,618.54,unknown_female10.jpg
 3,24,2,1,10,1,1,24,2,2,1,654.63,unknown_male24.jpg
 3,24,2,1,11,1,2,16,4,4,1,394.71,unknown_female16.jpg
 3,24,2,1,12,1,1,21,2,2,1,518.74,unknown_male21.jpg
 3,24,2,1,13,2,1, 3,1,1,1,562.90,unknown_male03.jpg
 3,24,2,1,14,2,1,15,1,1,1,542.98,unknown_male15.jpg
 3,24,2,1,15,2,2, 1,1,1,1,619.04,unknown_female01.jpg
 3,24,2,1,16,2,2, 8,2,2,1,575.12,unknown_female08.jpg
 3,24,2,1,17,2,2, 6,3,3,1,651.17,unknown_female06.jpg
 3,24,2,1,18,2,2, 2,4,4,1,711.28,unknown_female02.jpg
 3,24,2,1,19,1,1,17,4,4,1,467.44,unknown_male17.jpg
 3,24,2,1,20,1,2, 5,1,1,1,743.51,unknown_female05.jpg
 3,24,2,1,21,1,2, 7,4,4,1,539.59,unknown_female07.jpg
 3,24,2,1,22,1,1,19,1,1,1,511.68,unknown_male19.jpg
 3,24,2,1,23,2,1,22,3,3,1,683.76,unknown_male22.jpg
 3,24,2,1,24,2,1,13,1,1,1,575.82,unknown_male13.jpg
 3,24,2,1,25,1,2,20,1,1,1,475.95,unknown_female20.jpg
 3,24,2,1,26,1,2,11,3,3,1,624.03,unknown_female11.jpg
 3,24,2,1,27,2,1, 1,4,4,1,612.12,unknown_male01.jpg
 3,24,2,1,28,2,2,22,1,1,1,720.21,unknown_female22.jpg
 3,24,2,1,29,2,1,23,4,4,1,892.27,unknown_male23.jpg
 3,24,2,1,30,1,1,14,3,3,1,544.34,unknown_male14.jpg
 3,24,2,1,31,2,1, 8,4,4,1,540.48,unknown_male08.jpg
 3,24,2,1,32,1,2, 3,3,3,1,504.55,unknown_female03.jpg
 3,24,2,1,33,2,2,14,4,4,1,508.64,unknown_female14.jpg
 3,24,2,1,34,1,1, 4,1,1,1,648.69,unknown_male04.jpg
 3,24,2,1,35,2,1,20,3,3,1,660.81,unknown_male20.jpg
 3,24,2,1,36,1,2, 9,2,2,1,528.90,unknown_female09.jpg
 3,24,2,1,37,2,2,18,2,2,1,436.99,unknown_female18.jpg
 3,24,2,1,38,1,1, 6,4,4,1,681.08,unknown_male06.jpg
 3,24,2,1,39,1,1, 9,4,4,1,645.16,unknown_male09.jpg
 3,24,2,1,40,1,1,12,2,2,1,665.26,unknown_male12.jpg
 3,24,2,1,41,2,1, 5,3,3,1,613.35,unknown_male05.jpg
 3,24,2,1,42,1,2,12,4,4,1,1145.42,unknown_female12.jpg
 3,24,2,1,43,2,2,17,4,4,1,997.48,unknown_female17.jpg
 3,24,2,1,44,2,2, 4,2,2,1,689.61,unknown_female04.jpg
 3,24,2,1,45,1,1, 7,3,3,1,517.57,unknown_male07.jpg
 3,24,2,1,46,2,2,24,1,1,1,649.78,unknown_female24.jpg
 3,24,2,1,47,1,2,23,2,2,1,509.86,unknown_female23.jpg
 3,24,2,1,48,2,1,10,2,2,1,521.95,unknown_male10.jpg
 4,23,2,2, 1,1,1, 7,4,4,1,784.17,famous_male07.jpg
 4,23,2,2, 2,2,1,12,3,3,1,1540.30,famous_male12.jpg
 4,23,2,2, 3,2,1, 4,4,4,1,1880.42,famous_male04.jpg
 4,23,2,2, 4,2,1, 3,1,1,1,1444.46,famous_male03.jpg
 4,23,2,2, 5,1,1,11,4,4,1,1432.58,famous_male11.jpg
 4,23,2,2, 6,1,2, 4,2,2,1,1500.67,famous_female04.jpg
 4,23,2,2, 7,1,1,17,3,3,1,1616.75,famous_male17.jpg
 4,23,2,2, 8,2,2,10,1,1,1,1676.84,famous_female10.jpg
 4,23,2,2, 9,2,1,10,3,3,1,1952.93,famous_male10.jpg
 4,23,2,2,10,1,2,20,1,1,1,1604.96,famous_female20.jpg
 4,23,2,2,11,1,2, 9,2,2,1,1193.10,famous_female09.jpg
 4,23,2,2,12,1,2,18,4,4,1,1205.17,famous_female18.jpg
 4,23,2,2,13,1,2, 7,1,1,1,1433.27,famous_female07.jpg
 4,23,2,2,14,2,2, 1,4,4,1,2461.33,famous_female01.jpg
 4,23,2,2,15,2,2,19,4,4,1,2177.45,famous_female19.jpg
 4,23,2,2,16,1,1,20,4,4,1,1997.54,famous_male20.jpg
 4,23,2,2,17,2,1,14,4,4,1,2041.62,famous_male14.jpg
 4,23,2,2,18,1,2,14,2,2,1,1973.72,famous_female14.jpg
 4,23,2,2,19,2,2,23,4,4,1,1809.83,famous_female23.jpg
 4,23,2,2,20,1,2, 5,4,4,1,1749.82,famous_female05.jpg
 4,23,2,2,21,2,2,12,3,3,1,1545.98,famous_female12.jpg
 4,23,2,2,22,2,2, 6,2,2,1,1270.02,famous_female06.jpg
 4,23,2,2,23,2,2,13,2,2,1,2586.13,famous_female13.jpg
 4,23,2,2,24,2,1, 2,2,2,1,902.23,famous_male02.jpg
 4,23,2,2,25,1,2, 2,3,3,1,1218.26,famous_female02.jpg
 4,23,2,2,26,1,1,13,1,1,1,1190.41,famous_male13.jpg
 4,23,2,2,27,2,1,21,1,1,1,1602.50,famous_male21.jpg
 4,23,2,2,28,2,1,23,2,2,1,1878.59,famous_male23.jpg
 4,23,2,2,29,2,1, 8,1,1,1,850.68,famous_male08.jpg
 4,23,2,2,30,2,1,22,4,4,1,1150.76,famous_male22.jpg
 4,23,2,2,31,1,1,24,3,3,1,1482.85,famous_male24.jpg
 4,23,2,2,32,1,1, 5,1,1,1,1014.95,famous_male05.jpg
 4,23,2,2,33,1,2,21,3,3,1,1603.04,famous_female21.jpg
 4,23,2,2,34,2,1,18,3,3,1,1111.05,famous_male18.jpg
 4,23,2,2,35,1,2,24,3,3,1,1459.20,famous_female24.jpg
 4,23,2,2,36,1,1,16,1,1,1,1039.29,famous_male16.jpg
 4,23,2,2,37,1,1, 9,3,3,1,1067.37,famous_male09.jpg
 4,23,2,2,38,1,2,22,1,1,1,1151.48,famous_female22.jpg
 4,23,2,2,39,1,1, 6,2,2,1,1595.51,famous_male06.jpg
 4,23,2,2,40,2,2,17,3,3,1,1023.60,famous_female17.jpg
 4,23,2,2,41,1,1, 1,2,2,1,1283.75,famous_male01.jpg
 4,23,2,2,42,2,2,11,1,1,1,2383.84,famous_female11.jpg
 4,23,2,2,43,2,1,15,2,2,1,859.88,famous_male15.jpg
 4,23,2,2,44,2,2,15,3,3,1,1279.98,famous_female15.jpg
 4,23,2,2,45,2,2, 8,1,1,1,1364.07,famous_female08.jpg
 4,23,2,2,46,2,2, 3,2,2,1,1056.17,famous_female03.jpg
 4,23,2,2,47,1,1,19,2,2,1,1060.25,famous_male19.jpg
 4,23,2,2,48,1,2,16,4,4,1,992.33,famous_female16.jpg
 5,23,1,1, 1,1,2,22,4,4,1,1427.05,unknown_female22.jpg
 5,23,1,1, 2,2,2,16,4,4,1,727.20,unknown_female16.jpg
 5,23,1,1, 3,1,1, 5,4,4,1,1123.29,unknown_male05.jpg
 5,23,1,1, 4,2,2,24,1,1,1,479.34,unknown_female24.jpg
 5,23,1,1, 5,2,1, 6,4,4,1,1315.48,unknown_male06.jpg
 5,23,1,1, 6,1,1, 2,4,4,1,895.55,unknown_male02.jpg
 5,23,1,1, 7,1,2, 5,3,3,1,955.64,unknown_female05.jpg
 5,23,1,1, 8,2,2, 7,3,3,1,759.72,unknown_female07.jpg
 5,23,1,1, 9,1,2,23,3,3,1,651.81,unknown_female23.jpg
 5,23,1,1,10,1,2, 3,1,1,1,623.92,unknown_female03.jpg
 5,23,1,1,11,1,2,19,4,4,1,1139.99,unknown_female19.jpg
 5,23,1,1,12,2,2,10,1,1,1,744.07,unknown_female10.jpg
 5,23,1,1,13,1,2,13,2,2,1,804.16,unknown_female13.jpg
 5,23,1,1,14,2,1,14,2,2,1,696.25,unknown_male14.jpg
 5,23,1,1,15,1,1,17,4,4,1,1084.30,unknown_male17.jpg
 5,23,1,1,16,2,2,17,4,4,1,920.42,unknown_female17.jpg
 5,23,1,1,17,1,1, 3,2,2,1,556.53,unknown_male03.jpg
 5,23,1,1,18,1,2, 2,1,1,1,648.61,unknown_female02.jpg
 5,23,1,1,19,1,2,21,4,4,1,868.69,unknown_female21.jpg
 5,23,1,1,20,2,1,10,2,2,1,848.77,unknown_male10.jpg
 5,23,1,1,21,2,2,11,1,1,1,572.86,unknown_female11.jpg
 5,23,1,1,22,1,1,20,1,1,1,688.95,unknown_male20.jpg
 5,23,1,1,23,1,2, 8,2,2,1,661.04,unknown_female08.jpg
 5,23,1,1,24,2,2,12,2,2,1,537.09,unknown_female12.jpg
 5,23,1,1,25,1,1,19,2,2,1,437.21,unknown_male19.jpg
 5,23,1,1,26,2,2, 4,3,3,1,761.29,unknown_female04.jpg
 5,23,1,1,27,2,1,22,4,4,1,1045.39,unknown_male22.jpg
 5,23,1,1,28,2,2, 6,2,2,1,641.47,unknown_female06.jpg
 5,23,1,1,29,1,2,20,3,3,1,949.56,unknown_female20.jpg
 5,23,1,1,30,1,2, 1,2,2,1,849.66,unknown_female01.jpg
 5,23,1,1,31,2,2,15,2,2,1,493.74,unknown_female15.jpg
 5,23,1,1,32,1,1,15,3,3,1,953.85,unknown_male15.jpg
 5,23,1,1,33,1,1,23,1,1,1,469.91,unknown_male23.jpg
 5,23,1,1,34,2,1, 8,3,3,1,1001.94,unknown_male08.jpg
 5,23,1,1,35,1,2, 9,1,1,1,574.08,unknown_female09.jpg
 5,23,1,1,36,2,1,12,1,1,1,698.17,unknown_male12.jpg
 5,23,1,1,37,2,1, 1,1,1,1,542.20,unknown_male01.jpg
 5,23,1,1,38,2,1,18,2,2,1,506.35,unknown_male18.jpg
 5,23,1,1,39,1,1,11,2,2,1,430.43,unknown_male11.jpg
 5,23,1,1,40,1,1, 9,3,2,2,458.52,unknown_male09.jpg
 5,23,1,1,41,2,2,14,3,3,1,1030.61,unknown_female14.jpg
 5,23,1,1,42,2,1,24,4,4,1,786.65,unknown_male24.jpg
 5,23,1,1,43,1,1,21,1,1,1,446.79,unknown_male21.jpg
 5,23,1,1,44,2,1, 4,1,1,1,826.87,unknown_male04.jpg
 5,23,1,1,45,2,2,18,4,4,1,950.85,unknown_female18.jpg
 5,23,1,1,46,2,1,16,3,3,1,851.07,unknown_male16.jpg
 5,23,1,1,47,1,1, 7,3,3,1,855.13,unknown_male07.jpg
 5,23,1,1,48,2,1,13,3,3,1,851.22,unknown_male13.jpg
 6,24,1,2, 1,1,1,23,3,3,1,1280.60,famous_male23.jpg
 6,24,1,2, 2,1,2,24,4,4,1,996.72,famous_female24.jpg
 6,24,1,2, 3,2,2,19,2,2,1,1232.80,famous_female19.jpg
 6,24,1,2, 4,2,1, 4,2,2,1,876.86,famous_male04.jpg
 6,24,1,2, 5,1,1, 1,3,3,1,760.98,famous_male01.jpg
 6,24,1,2, 6,2,1,22,3,3,1,661.06,famous_male22.jpg
 6,24,1,2, 7,1,1,15,4,4,1,857.15,famous_male15.jpg
 6,24,1,2, 8,2,1, 5,1,1,1,773.23,famous_male05.jpg
 6,24,1,2, 9,1,1,11,2,2,1,713.28,famous_male11.jpg
 6,24,1,2,10,1,2, 4,1,1,1,733.40,famous_female04.jpg
 6,24,1,2,11,2,2, 7,1,1,1,689.50,famous_female07.jpg
 6,24,1,2,12,1,1,12,2,2,1,597.54,famous_male12.jpg
 6,24,1,2,13,1,2, 9,3,3,1,713.66,famous_female09.jpg
 6,24,1,2,14,1,2,11,4,4,1,701.75,famous_female11.jpg
 6,24,1,2,15,1,2,10,3,3,1,609.86,famous_female10.jpg
 6,24,1,2,16,2,2,14,3,3,1,741.93,famous_female14.jpg
 6,24,1,2,17,2,2,17,1,1,1,954.06,famous_female17.jpg
 6,24,1,2,18,2,1,17,3,3,1,670.10,famous_male17.jpg
 6,24,1,2,19,2,2,20,4,4,1,674.13,famous_female20.jpg
 6,24,1,2,20,1,1, 6,2,2,1,598.29,famous_male06.jpg
 6,24,1,2,21,2,2, 5,1,1,1,634.37,famous_female05.jpg
 6,24,1,2,22,2,2, 6,2,2,1,846.45,famous_female06.jpg
 6,24,1,2,23,1,2, 1,2,2,1,474.55,famous_female01.jpg
 6,24,1,2,24,2,2,16,3,3,1,846.62,famous_female16.jpg
 6,24,1,2,25,2,1,21,1,1,1,762.73,famous_male21.jpg
 6,24,1,2,26,1,2,21,2,2,1,502.80,famous_female21.jpg
 6,24,1,2,27,1,2,23,1,1,1,530.90,famous_female23.jpg
 6,24,1,2,28,2,1,20,4,4,1,750.98,famous_male20.jpg
 6,24,1,2,29,2,1, 9,2,2,1,547.08,famous_male09.jpg
 6,24,1,2,30,2,1,10,4,4,1,615.16,famous_male10.jpg
 6,24,1,2,31,1,1, 7,3,3,1,619.24,famous_male07.jpg
 6,24,1,2,32,2,2, 2,2,2,1,431.30,famous_female02.jpg
 6,24,1,2,33,2,2,18,3,3,1,459.42,famous_female18.jpg
 6,24,1,2,34,2,2, 3,4,4,1,615.52,famous_female03.jpg
 6,24,1,2,35,1,1, 8,1,1,1,643.59,famous_male08.jpg
 6,24,1,2,36,2,2, 8,4,4,1,767.61,famous_female08.jpg
 6,24,1,2,37,1,2,12,4,4,1,627.74,famous_female12.jpg
 6,24,1,2,38,2,1,18,1,1,1,903.79,famous_male18.jpg
 6,24,1,2,39,2,1,19,4,4,1,747.94,famous_male19.jpg
 6,24,1,2,40,1,2,15,1,1,1,448.03,famous_female15.jpg
 6,24,1,2,41,1,1,14,4,4,1,452.12,famous_male14.jpg
 6,24,1,2,42,2,1,16,2,2,1,592.20,famous_male16.jpg
 6,24,1,2,43,1,1, 2,1,1,1,452.28,famous_male02.jpg
 6,24,1,2,44,2,1,24,3,3,1,816.38,famous_male24.jpg
 6,24,1,2,45,1,2,13,2,2,1,708.43,famous_female13.jpg
 6,24,1,2,46,1,1, 3,4,4,1,536.54,famous_male03.jpg
 6,24,1,2,47,1,2,22,3,3,1,428.64,famous_female22.jpg
 6,24,1,2,48,1,1,13,1,1,1,688.73,famous_male13.jpg
 7,24,1,1, 1,2,2, 6,3,3,1,733.26,unknown_female06.jpg
 7,24,1,1, 2,1,2, 8,2,2,1,585.41,unknown_female08.jpg
 7,24,1,1, 3,1,2, 4,1,1,1,453.51,unknown_female04.jpg
 7,24,1,1, 4,1,1,19,4,4,1,417.59,unknown_male19.jpg
 7,24,1,1, 5,2,1,11,3,3,1,509.64,unknown_male11.jpg
 7,24,1,1, 6,1,1,15,2,2,1,449.77,unknown_male15.jpg
 7,24,1,1, 7,2,1,10,4,4,1,397.86,unknown_male10.jpg
 7,24,1,1, 8,1,2,22,1,1,1,361.96,unknown_female22.jpg
 7,24,1,1, 9,2,1,20,1,1,1,430.03,unknown_male20.jpg
 7,24,1,1,10,2,1,13,4,4,1,386.11,unknown_male13.jpg
 7,24,1,1,11,1,2, 3,4,4,1,478.20,unknown_female03.jpg
 7,24,1,1,12,1,1, 7,3,3,1,450.31,unknown_male07.jpg
 7,24,1,1,13,2,2,13,1,1,1,310.40,unknown_female13.jpg
 7,24,1,1,14,1,1, 2,4,4,1,282.48,unknown_male02.jpg
 7,24,1,1,15,1,2, 1,4,4,1,846.56,unknown_female01.jpg
 7,24,1,1,16,1,1, 9,1,1,1,402.65,unknown_male09.jpg
 7,24,1,1,17,2,2, 2,2,2,1,526.73,unknown_female02.jpg
 7,24,1,1,18,1,2,20,3,3,1,458.82,unknown_female20.jpg
 7,24,1,1,19,2,2,24,3,3,1,430.91,unknown_female24.jpg
 7,24,1,1,20,2,2, 7,2,2,1,323.01,unknown_female07.jpg
 7,24,1,1,21,2,1,24,1,1,1,359.08,unknown_male24.jpg
 7,24,1,1,22,1,2,11,3,3,1,347.18,unknown_female11.jpg
 7,24,1,1,23,1,1, 4,3,3,1,439.25,unknown_male04.jpg
 7,24,1,1,24,2,1,17,1,1,1,427.27,unknown_male17.jpg
 7,24,1,1,25,1,2,14,4,4,1,367.40,unknown_female14.jpg
 7,24,1,1,26,2,2,15,1,1,1,339.52,unknown_female15.jpg
 7,24,1,1,27,2,1, 3,3,3,1,271.60,unknown_male03.jpg
 7,24,1,1,28,2,2,23,1,1,1,547.70,unknown_female23.jpg
 7,24,1,1,29,1,1, 6,4,4,1,415.74,unknown_male06.jpg
 7,24,1,1,30,2,2,10,4,4,1,451.87,unknown_female10.jpg
 7,24,1,1,31,1,2,12,3,3,1,519.95,unknown_female12.jpg
 7,24,1,1,32,1,2,17,2,2,1,628.07,unknown_female17.jpg
 7,24,1,1,33,2,2, 5,4,4,1,384.09,unknown_female05.jpg
 7,24,1,1,34,1,2,21,1,1,1,524.21,unknown_female21.jpg
 7,24,1,1,35,1,1,23,3,3,1,416.31,unknown_male23.jpg
 7,24,1,1,36,2,1, 8,3,3,1,388.39,unknown_male08.jpg
 7,24,1,1,37,2,1,18,2,2,1,376.48,unknown_male18.jpg
 7,24,1,1,38,2,2,16,2,2,1,452.56,unknown_female16.jpg
 7,24,1,1,39,2,1, 5,4,4,1,408.67,unknown_male05.jpg
 7,24,1,1,40,1,1, 1,1,1,1,452.74,unknown_male01.jpg
 7,24,1,1,41,1,2,18,2,2,1,376.84,unknown_female18.jpg
 7,24,1,1,42,2,2, 9,3,3,1,500.89,unknown_female09.jpg
 7,24,1,1,43,1,1,14,2,2,1,345.00,unknown_male14.jpg
 7,24,1,1,44,2,1,22,2,2,1,477.09,unknown_male22.jpg
 7,24,1,1,45,1,1,12,2,2,1,401.16,unknown_male12.jpg
 7,24,1,1,46,2,2,19,4,4,1,405.27,unknown_female19.jpg
 7,24,1,1,47,1,1,16,1,1,1,385.31,unknown_male16.jpg
 7,24,1,1,48,2,1,21,2,2,1,453.44,unknown_male21.jpg
 8,22,2,2, 1,1,2,20,4,4,1,841.63,famous_female20.jpg
 8,22,2,2, 2,1,2,23,4,4,1,989.76,famous_female23.jpg
 8,22,2,2, 3,2,2, 3,4,4,1,1377.87,famous_female03.jpg
 8,22,2,2, 4,2,1, 8,1,1,1,1045.94,famous_male08.jpg
 8,22,2,2, 5,1,2,24,3,3,1,906.05,famous_female24.jpg
 8,22,2,2, 6,2,1, 1,2,2,1,782.12,famous_male01.jpg
 8,22,2,2, 7,1,2,15,1,1,1,1554.10,famous_female15.jpg
 8,22,2,2, 8,1,2, 4,2,2,1,894.29,famous_female04.jpg
 8,22,2,2, 9,1,1,23,2,2,1,850.38,famous_male23.jpg
 8,22,2,2,10,1,1,11,1,1,1,894.47,famous_male11.jpg
 8,22,2,2,11,2,1, 9,2,2,1,1058.62,famous_male09.jpg
 8,22,2,2,12,2,1,19,1,1,1,846.64,famous_male19.jpg
 8,22,2,2,13,2,1,24,4,4,1,714.66,famous_male24.jpg
 8,22,2,2,14,2,2,13,1,1,1,1254.79,famous_female13.jpg
 8,22,2,2,15,2,1, 3,3,3,1,762.90,famous_male03.jpg
 8,22,2,2,16,1,2,22,2,2,1,974.93,famous_female22.jpg
 8,22,2,2,17,2,1, 4,3,3,1,819.05,famous_male04.jpg
 8,22,2,2,18,1,1,13,4,4,1,799.16,famous_male13.jpg
 8,22,2,2,19,2,2,16,2,2,1,803.25,famous_female16.jpg
 8,22,2,2,20,2,2,18,2,2,1,727.34,famous_female18.jpg
 8,22,2,2,21,1,2, 8,4,4,1,739.44,famous_female08.jpg
 8,22,2,2,22,1,2, 9,1,1,1,663.52,famous_female09.jpg
 8,22,2,2,23,2,2, 6,4,4,1,1555.62,famous_female06.jpg
 8,22,2,2,24,1,2,17,1,1,1,759.71,famous_female17.jpg
 8,22,2,2,25,2,2,12,3,3,1,1019.78,famous_female12.jpg
 8,22,2,2,26,1,1, 6,3,3,1,815.85,famous_male06.jpg
 8,22,2,2,27,2,1,15,3,3,1,819.94,famous_male15.jpg
 8,22,2,2,28,1,1,17,4,4,1,896.04,famous_male17.jpg
 8,22,2,2,29,1,2, 5,3,3,1,772.09,famous_female05.jpg
 8,22,2,2,30,1,1, 7,3,3,1,592.23,famous_male07.jpg
 8,22,2,2,31,2,2, 2,1,1,1,644.30,famous_female02.jpg
 8,22,2,2,32,2,1,10,4,4,1,560.39,famous_male10.jpg
 8,22,2,2,33,1,1,20,3,3,1,644.47,famous_male20.jpg
 8,22,2,2,34,1,1,12,2,2,1,1480.52,famous_male12.jpg
 8,22,2,2,35,2,2,11,3,3,1,804.65,famous_female11.jpg
 8,22,2,2,36,2,2,10,3,3,1,880.75,famous_female10.jpg
 8,22,2,2,37,2,1, 2,4,4,1,916.82,famous_male02.jpg
 8,22,2,2,38,1,1,14,1,1,1,576.93,famous_male14.jpg
 8,22,2,2,39,2,1, 5,1,1,1,685.03,famous_male05.jpg
 8,22,2,2,40,2,2,14,2,2,1,713.08,famous_female14.jpg
 8,22,2,2,41,1,2, 7,3,3,1,725.15,famous_female07.jpg
 8,22,2,2,42,2,2,19,1,1,1,529.28,famous_female19.jpg
 8,22,2,2,43,1,1,21,4,4,1,693.39,famous_male21.jpg
 8,22,2,2,44,1,1,18,1,1,1,713.43,famous_male18.jpg
 8,22,2,2,45,2,1,22,2,2,1,581.53,famous_male22.jpg
 8,22,2,2,46,1,1,16,2,2,1,833.61,famous_male16.jpg
 8,22,2,2,47,2,2, 1,4,4,1,1005.66,famous_female01.jpg
 8,22,2,2,48,1,2,21,2,2,1,889.79,famous_female21.jpg
 9,25,1,1, 1,2,2,11,2,2,1,1290.04,unknown_female11.jpg
 9,25,1,1, 2,2,1, 8,1,1,1,1126.16,unknown_male08.jpg
 9,25,1,1, 3,1,1,15,4,4,1,1226.28,unknown_male15.jpg
 9,25,1,1, 4,1,1,13,3,3,1,998.37,unknown_male13.jpg
 9,25,1,1, 5,1,1, 6,1,1,1,1498.41,unknown_male06.jpg
 9,25,1,1, 6,2,1,23,3,3,1,1310.56,unknown_male23.jpg
 9,25,1,1, 7,2,2,14,3,3,1,1762.63,unknown_female14.jpg
 9,25,1,1, 8,1,2,17,3,3,1,1542.71,unknown_female17.jpg
 9,25,1,1, 9,1,2, 2,4,4,1,2090.76,unknown_female02.jpg
 9,25,1,1,10,1,2,22,4,4,1,1574.89,unknown_female22.jpg
 9,25,1,1,11,2,2, 4,4,4,1,1418.98,unknown_female04.jpg
 9,25,1,1,12,1,1,21,3,3,1,1575.00,unknown_male21.jpg
 9,25,1,1,13,1,1,17,1,1,1,2411.18,unknown_male17.jpg
 9,25,1,1,14,2,2, 9,1,1,1,1991.20,unknown_female09.jpg
 9,25,1,1,15,2,2,21,3,3,1,1739.34,unknown_female21.jpg
 9,25,1,1,16,2,1, 3,2,2,1,2191.42,unknown_male03.jpg
 9,25,1,1,17,1,2,13,1,1,1,1155.50,unknown_female13.jpg
 9,25,1,1,18,2,2,12,1,1,1,1167.59,unknown_female12.jpg
 9,25,1,1,19,1,1,14,4,4,1,1339.68,unknown_male14.jpg
 9,25,1,1,20,2,1,10,3,3,1,975.69,unknown_male10.jpg
 9,25,1,1,21,2,1,20,3,3,1,987.85,unknown_male20.jpg
 9,25,1,1,22,1,2,20,2,2,1,1655.90,unknown_female20.jpg
 9,25,1,1,23,2,1,18,1,1,1,1276.02,unknown_male18.jpg
 9,25,1,1,24,1,1, 9,2,2,1,1704.12,unknown_male09.jpg
 9,25,1,1,25,1,1, 4,3,3,1,2244.22,unknown_male04.jpg
 9,25,1,1,26,1,2,16,2,2,1,1872.30,unknown_female16.jpg
 9,25,1,1,27,2,1, 7,4,4,1,1612.38,unknown_male07.jpg
 9,25,1,1,28,2,1, 5,1,1,1,1856.46,unknown_male05.jpg
 9,25,1,1,29,1,2,24,1,1,1,1724.55,unknown_female24.jpg
 9,25,1,1,30,1,2, 3,3,3,1,2048.64,unknown_female03.jpg
 9,25,1,1,31,2,2,23,2,2,1,1532.72,unknown_female23.jpg
 9,25,1,1,32,2,2,18,1,1,1,1760.77,unknown_female18.jpg
 9,25,1,1,33,2,2, 8,4,4,1,1252.90,unknown_female08.jpg
 9,25,1,1,34,2,1,24,2,2,1,1344.99,unknown_male24.jpg
 9,25,1,1,35,2,2, 6,4,4,1,725.06,unknown_female06.jpg
 9,25,1,1,36,1,2,15,1,1,1,1121.18,unknown_female15.jpg
 9,25,1,1,37,1,1, 1,2,2,1,1573.22,unknown_male01.jpg
 9,25,1,1,38,1,1,16,4,4,1,2313.34,unknown_male16.jpg
 9,25,1,1,39,1,1,11,2,2,1,2221.43,unknown_male11.jpg
 9,25,1,1,40,1,2, 1,4,4,1,2369.52,unknown_female01.jpg
 9,25,1,1,41,2,1, 2,2,2,1,957.53,unknown_male02.jpg
 9,25,1,1,42,1,2, 7,2,2,1,1609.71,unknown_female07.jpg
 9,25,1,1,43,2,2, 5,2,2,1,1853.74,unknown_female05.jpg
 9,25,1,1,44,2,1,19,4,4,1,1113.86,unknown_male19.jpg
 9,25,1,1,45,2,1,22,4,4,1,861.95,unknown_male22.jpg
 9,25,1,1,46,2,2,10,3,3,1,1018.04,unknown_female10.jpg
 9,25,1,1,47,1,2,19,3,3,1,1166.15,unknown_female19.jpg
 9,25,1,1,48,1,1,12,1,1,1,2250.23,unknown_male12.jpg
10,28,2,2, 1,1,2,13,3,3,1,1316.36,famous_female13.jpg
10,28,2,2, 2,1,1, 4,1,3,2,584.46,famous_male04.jpg
10,28,2,2, 3,2,2,14,4,4,1,1412.61,famous_female14.jpg
10,28,2,2, 4,2,1, 7,1,1,1,1408.68,famous_male07.jpg
10,28,2,2, 5,2,2,12,4,4,1,1020.77,famous_female12.jpg
10,28,2,2, 6,2,1,19,3,3,1,1384.83,famous_male19.jpg
10,28,2,2, 7,1,1,24,1,1,1,1460.94,famous_male24.jpg
10,28,2,2, 8,1,1,23,3,3,1,1593.05,famous_male23.jpg
10,28,2,2, 9,2,1,15,2,2,1,1357.11,famous_male15.jpg
10,28,2,2,10,1,1,12,1,1,1,1665.21,famous_male12.jpg
10,28,2,2,11,1,1, 6,4,4,1,1389.30,famous_male06.jpg
10,28,2,2,12,1,2,22,2,2,1,1497.39,famous_female22.jpg
10,28,2,2,13,2,1, 9,4,4,1,1133.44,famous_male09.jpg
10,28,2,2,14,2,2, 2,1,1,1,1833.55,famous_female02.jpg
10,28,2,2,15,2,2, 4,3,3,1,1533.60,famous_female04.jpg
10,28,2,2,16,1,1,21,2,2,1,1905.73,famous_male21.jpg
10,28,2,2,17,1,2,21,1,1,1,1333.83,famous_female21.jpg
10,28,2,2,18,1,2, 8,3,3,1,1425.88,famous_female08.jpg
10,28,2,2,19,1,1,13,4,4,1,1389.99,famous_male13.jpg
10,28,2,2,20,1,2,11,1,1,1,1362.08,famous_female11.jpg
10,28,2,2,21,2,2,20,1,1,1,1310.21,famous_female20.jpg
10,28,2,2,22,1,2,19,2,2,1,1474.25,famous_female19.jpg
10,28,2,2,23,2,1,14,1,1,1,1574.35,famous_male14.jpg
10,28,2,2,24,1,2,23,4,4,1,1322.37,famous_female23.jpg
10,28,2,2,25,2,1, 3,4,4,1,1382.51,famous_male03.jpg
10,28,2,2,26,2,1, 1,2,2,1,1330.60,famous_male01.jpg
10,28,2,2,27,2,1, 2,2,2,1,1558.74,famous_male02.jpg
10,28,2,2,28,2,1,10,4,4,1,1410.39,famous_male10.jpg
10,28,2,2,29,2,2, 9,3,3,1,1358.48,famous_female09.jpg
10,28,2,2,30,1,1,22,4,4,1,1274.49,famous_male22.jpg
10,28,2,2,31,1,2,10,1,1,1,1254.67,famous_female10.jpg
10,28,2,2,32,1,1, 5,2,2,1,1186.62,famous_male05.jpg
10,28,2,2,33,2,2,17,1,1,1,1558.85,famous_female17.jpg
10,28,2,2,34,1,1,18,3,3,1,1506.92,famous_male18.jpg
10,28,2,2,35,2,1,17,1,1,1,1567.00,famous_male17.jpg
10,28,2,2,36,2,2, 1,2,2,1,1004.82,famous_female01.jpg
10,28,2,2,37,1,2, 3,4,4,1,1176.83,famous_female03.jpg
10,28,2,2,38,2,2,15,3,3,1,1284.97,famous_female15.jpg
10,28,2,2,39,1,1, 8,3,3,1,1537.02,famous_male08.jpg
10,28,2,2,40,2,2, 6,2,2,1,1317.14,famous_female06.jpg
10,28,2,2,41,1,2,24,4,4,1,1289.20,famous_female24.jpg
10,28,2,2,42,2,2, 7,4,4,1,1229.32,famous_female07.jpg
10,28,2,2,43,1,2, 5,3,3,1,1441.37,famous_female05.jpg
10,28,2,2,44,2,2,18,2,2,1,1141.47,famous_female18.jpg
10,28,2,2,45,1,2,16,2,2,1,1369.57,famous_female16.jpg
10,28,2,2,46,1,1,20,2,2,1,1477.70,famous_male20.jpg
10,28,2,2,47,2,1,16,3,3,1,1257.70,famous_male16.jpg
10,28,2,2,48,2,1,11,3,3,1,1421.84,famous_male11.jpg
11,22,2,1, 1,1,1,22,4,4,1,772.49,unknown_male22.jpg
11,22,2,1, 2,1,2,24,1,1,1,616.66,unknown_female24.jpg
11,22,2,1, 3,2,2, 3,1,1,1,564.74,unknown_female03.jpg
11,22,2,1, 4,2,2, 5,1,1,1,816.83,unknown_female05.jpg
11,22,2,1, 5,2,1,16,2,2,1,988.84,unknown_male16.jpg
11,22,2,1, 6,2,2,18,4,4,1,1145.00,unknown_female18.jpg
11,22,2,1, 7,1,1, 6,1,1,1,693.08,unknown_male06.jpg
11,22,2,1, 8,1,2,19,2,2,1,937.17,unknown_female19.jpg
11,22,2,1, 9,2,2,11,2,2,1,701.27,unknown_female11.jpg
11,22,2,1,10,2,2,23,3,3,1,889.38,unknown_female23.jpg
11,22,2,1,11,1,1, 3,2,2,1,1253.43,unknown_male03.jpg
11,22,2,1,12,2,1, 4,3,3,1,761.52,unknown_male04.jpg
11,22,2,1,13,2,2,20,3,3,1,789.61,unknown_female20.jpg
11,22,2,1,14,1,2, 8,2,2,1,1217.72,unknown_female08.jpg
11,22,2,1,15,2,1, 7,2,2,1,1349.79,unknown_male07.jpg
11,22,2,1,16,1,1,21,3,3,1,609.88,unknown_male21.jpg
11,22,2,1,17,1,2, 4,1,1,1,869.97,unknown_female04.jpg
11,22,2,1,18,2,1, 5,4,4,1,714.00,unknown_male05.jpg
11,22,2,1,19,2,1, 9,3,3,1,894.11,unknown_male09.jpg
11,22,2,1,20,1,2,14,3,3,1,970.23,unknown_female14.jpg
11,22,2,1,21,1,1,15,1,1,1,902.27,unknown_male15.jpg
11,22,2,1,22,2,2,13,4,4,1,890.33,unknown_female13.jpg
11,22,2,1,23,2,1,14,4,4,1,638.50,unknown_male14.jpg
11,22,2,1,24,1,1,17,3,3,1,786.58,unknown_male17.jpg
11,22,2,1,25,1,2,21,3,3,1,710.67,unknown_female21.jpg
11,22,2,1,26,1,2,15,1,1,1,778.76,unknown_female15.jpg
11,22,2,1,27,2,1,24,3,3,1,726.77,unknown_male24.jpg
11,22,2,1,28,1,2,22,4,4,1,994.94,unknown_female22.jpg
11,22,2,1,29,1,2, 6,3,3,1,623.01,unknown_female06.jpg
11,22,2,1,30,1,1, 2,4,4,1,915.09,unknown_male02.jpg
11,22,2,1,31,2,2,16,2,2,1,951.19,unknown_female16.jpg
11,22,2,1,32,1,1,23,1,1,1,907.27,unknown_male23.jpg
11,22,2,1,33,1,2, 9,2,2,1,1271.36,unknown_female09.jpg
11,22,2,1,34,2,1, 1,1,1,1,763.38,unknown_male01.jpg
11,22,2,1,35,2,1,11,2,2,1,1287.53,unknown_male11.jpg
11,22,2,1,36,1,1, 8,2,2,1,795.56,unknown_male08.jpg
11,22,2,1,37,1,2,12,4,4,1,879.71,unknown_female12.jpg
11,22,2,1,38,2,1,18,1,1,1,843.80,unknown_male18.jpg
11,22,2,1,39,2,2, 2,3,3,1,847.89,unknown_female02.jpg
11,22,2,1,40,2,2, 7,4,4,1,579.97,unknown_female07.jpg
11,22,2,1,41,1,1,13,3,3,1,960.06,unknown_male13.jpg
11,22,2,1,42,2,1,12,1,1,1,764.14,unknown_male12.jpg
11,22,2,1,43,1,2,17,4,4,1,664.24,unknown_female17.jpg
11,22,2,1,44,1,1,10,4,4,1,692.32,unknown_male10.jpg
11,22,2,1,45,1,1,19,2,2,1,808.41,unknown_male19.jpg
11,22,2,1,46,2,2,10,1,1,1,676.51,unknown_female10.jpg
11,22,2,1,47,2,2, 1,2,2,1,808.53,unknown_female01.jpg
11,22,2,1,48,2,1,20,4,4,1,764.67,unknown_male20.jpg
12,19,1,2, 1,2,1,20,3,3,1,975.62,famous_male20.jpg
12,19,1,2, 2,1,2,24,4,4,1,1099.79,famous_female24.jpg
12,19,1,2, 3,2,1,24,2,2,1,567.84,famous_male24.jpg
12,19,1,2, 4,2,1, 4,4,4,1,1323.95,famous_male04.jpg
12,19,1,2, 5,2,2,20,4,4,1,1400.04,famous_female20.jpg
12,19,1,2, 6,1,2,14,4,4,1,1164.13,famous_female14.jpg
12,19,1,2, 7,1,1,23,4,4,1,1424.21,famous_male23.jpg
12,19,1,2, 8,2,2, 5,3,3,1,1276.29,famous_female05.jpg
12,19,1,2, 9,2,2,23,4,4,1,1680.42,famous_female23.jpg
12,19,1,2,10,1,2,13,2,2,1,1132.48,famous_female13.jpg
12,19,1,2,11,2,2,22,2,2,1,1360.57,famous_female22.jpg
12,19,1,2,12,2,1,10,3,3,1,1540.66,famous_male10.jpg
12,19,1,2,13,2,1,13,2,2,1,1128.74,famous_male13.jpg
12,19,1,2,14,1,1, 3,1,1,1,1028.83,famous_male03.jpg
12,19,1,2,15,1,2,18,2,2,1,1168.84,famous_female18.jpg
12,19,1,2,16,1,1, 2,3,3,1,996.99,famous_male02.jpg
12,19,1,2,17,2,2,19,2,2,1,1337.05,famous_female19.jpg
12,19,1,2,18,1,1,21,1,1,1,965.19,famous_male21.jpg
12,19,1,2,19,1,2,12,4,4,1,1009.28,famous_female12.jpg
12,19,1,2,20,2,1, 6,1,1,1,1173.35,famous_male06.jpg
12,19,1,2,21,1,2, 4,1,1,1,1129.43,famous_female04.jpg
12,19,1,2,22,1,1, 8,4,4,1,1053.47,famous_male08.jpg
12,19,1,2,23,1,2, 7,1,1,1,1457.63,famous_female07.jpg
12,19,1,2,24,2,2, 9,3,3,1,1493.69,famous_female09.jpg
12,19,1,2,25,2,1, 7,1,1,1,1049.79,famous_male07.jpg
12,19,1,2,26,1,1,22,2,2,1,1069.88,famous_male22.jpg
12,19,1,2,27,1,1,11,3,3,1,1081.96,famous_male11.jpg
12,19,1,2,28,1,1, 1,2,2,1,1318.05,famous_male01.jpg
12,19,1,2,29,2,1, 9,4,4,1,834.12,famous_male09.jpg
12,19,1,2,30,1,2,16,2,2,1,1102.16,famous_female16.jpg
12,19,1,2,31,1,1,17,2,2,1,1106.30,famous_male17.jpg
12,19,1,2,32,1,2,15,3,3,1,1110.40,famous_female15.jpg
12,19,1,2,33,2,2,17,1,1,1,1026.48,famous_female17.jpg
12,19,1,2,34,2,1,18,1,1,1,1222.55,famous_male18.jpg
12,19,1,2,35,2,2, 6,1,1,1,1234.66,famous_female06.jpg
12,19,1,2,36,2,2, 8,3,3,1,1414.74,famous_female08.jpg
12,19,1,2,37,1,1, 5,4,4,1,1226.83,famous_male05.jpg
12,19,1,2,38,1,1,16,1,1,1,1126.92,famous_male16.jpg
12,19,1,2,39,1,2,10,3,3,1,1315.01,famous_female10.jpg
12,19,1,2,40,1,2, 2,3,3,1,831.04,famous_female02.jpg
12,19,1,2,41,2,1,12,2,2,1,1323.18,famous_male12.jpg
12,19,1,2,42,2,2,21,2,2,1,1199.20,famous_female21.jpg
12,19,1,2,43,2,2, 1,4,4,1,1131.33,famous_female01.jpg
12,19,1,2,44,2,1,14,4,4,1,1263.42,famous_male14.jpg
12,19,1,2,45,2,1,15,3,3,1,1147.54,famous_male15.jpg
12,19,1,2,46,1,2,11,1,1,1,1447.62,famous_female11.jpg
12,19,1,2,47,2,2, 3,1,1,1,1451.71,famous_female03.jpg
12,19,1,2,48,1,1,19,3,3,1,1183.79,famous_male19.jpg
13,25,2,1, 1,1,2, 3,2,2,1,766.55,unknown_female03.jpg
13,25,2,1, 2,1,2, 2,3,3,1,930.70,unknown_female02.jpg
13,25,2,1, 3,2,2,13,4,4,1,1134.80,unknown_female13.jpg
13,25,2,1, 4,1,1,20,2,2,1,1034.97,unknown_male20.jpg
13,25,2,1, 5,2,2,21,4,4,1,1078.99,unknown_female21.jpg
13,25,2,1, 6,2,2, 6,1,1,1,883.05,unknown_female06.jpg
13,25,2,1, 7,1,2, 8,3,3,1,679.08,unknown_female08.jpg
13,25,2,1, 8,2,1, 6,3,3,1,835.22,unknown_male06.jpg
13,25,2,1, 9,2,1,19,1,1,1,911.31,unknown_male19.jpg
13,25,2,1,10,2,1,17,2,2,1,723.42,unknown_male17.jpg
13,25,2,1,11,1,2,18,2,2,1,815.49,unknown_female18.jpg
13,25,2,1,12,1,1,13,3,3,1,723.58,unknown_male13.jpg
13,25,2,1,13,1,1, 1,3,3,1,631.68,unknown_male01.jpg
13,25,2,1,14,2,2,14,2,2,1,691.75,unknown_female14.jpg
13,25,2,1,15,2,1, 9,4,4,1,663.84,unknown_male09.jpg
13,25,2,1,16,1,1,22,1,1,1,779.93,unknown_male22.jpg
13,25,2,1,17,1,2,11,4,4,1,720.02,unknown_female11.jpg
13,25,2,1,18,1,1,24,1,1,1,756.10,unknown_male24.jpg
13,25,2,1,19,1,2,23,4,4,1,976.18,unknown_female23.jpg
13,25,2,1,20,2,2, 5,3,3,1,1108.28,unknown_female05.jpg
13,25,2,1,21,1,2,19,1,1,1,872.34,unknown_female19.jpg
13,25,2,1,22,1,2,24,1,1,1,652.46,unknown_female24.jpg
13,25,2,1,23,2,2,20,2,2,1,568.55,unknown_female20.jpg
13,25,2,1,24,1,2,12,2,2,1,852.59,unknown_female12.jpg
13,25,2,1,25,1,2, 4,1,1,1,680.72,unknown_female04.jpg
13,25,2,1,26,2,1, 3,2,2,1,692.80,unknown_male03.jpg
13,25,2,1,27,2,1,15,4,4,1,880.90,unknown_male15.jpg
13,25,2,1,28,1,1,21,3,3,1,788.93,unknown_male21.jpg
13,25,2,1,29,2,2,22,1,1,1,713.07,unknown_female22.jpg
13,25,2,1,30,2,2,15,2,2,1,973.16,unknown_female15.jpg
13,25,2,1,31,2,1,18,4,4,1,777.24,unknown_male18.jpg
13,25,2,1,32,2,1,10,3,3,1,605.29,unknown_male10.jpg
13,25,2,1,33,1,1,16,4,4,1,649.42,unknown_male16.jpg
13,25,2,1,34,1,1, 5,1,1,1,955.34,unknown_male05.jpg
13,25,2,1,35,1,1, 8,4,4,1,1575.49,unknown_male08.jpg
13,25,2,1,36,2,1, 4,1,1,1,1603.58,unknown_male04.jpg
13,25,2,1,37,2,2,10,3,3,1,839.67,unknown_female10.jpg
13,25,2,1,38,1,2,16,3,3,1,1067.72,unknown_female16.jpg
13,25,2,1,39,1,1,12,4,4,1,751.84,unknown_male12.jpg
13,25,2,1,40,2,1, 7,3,3,1,1211.92,unknown_male07.jpg
13,25,2,1,41,2,2,17,1,1,1,808.02,unknown_female17.jpg
13,25,2,1,42,2,2, 1,4,4,1,796.10,unknown_female01.jpg
13,25,2,1,43,2,1,14,2,2,1,888.21,unknown_male14.jpg
13,25,2,1,44,1,1,11,2,2,1,844.28,unknown_male11.jpg
13,25,2,1,45,2,2, 9,3,3,1,904.36,unknown_female09.jpg
13,25,2,1,46,1,2, 7,4,4,1,716.39,unknown_female07.jpg
13,25,2,1,47,2,1,23,1,1,1,1016.55,unknown_male23.jpg
13,25,2,1,48,1,1, 2,2,2,1,764.59,unknown_male02.jpg
14,22,2,2, 1,2,2, 1,1,1,1,2021.83,famous_female01.jpg
14,22,2,2, 2,1,2,22,1,1,1,1361.98,famous_female22.jpg
14,22,2,2, 3,1,2,14,2,2,1,1166.06,famous_female14.jpg
14,22,2,2, 4,2,1,11,4,4,1,1034.18,famous_male11.jpg
14,22,2,2, 5,1,1, 7,4,4,1,662.20,famous_male07.jpg
14,22,2,2, 6,1,1, 8,1,1,1,898.33,famous_male08.jpg
14,22,2,2, 7,2,1,10,3,3,1,774.41,famous_male10.jpg
14,22,2,2, 8,1,2,24,1,1,1,938.50,famous_female24.jpg
14,22,2,2, 9,2,2, 4,3,3,1,990.59,famous_female04.jpg
14,22,2,2,10,2,1,13,3,3,1,722.68,famous_male13.jpg
14,22,2,2,11,1,2,23,4,4,1,766.80,famous_female23.jpg
14,22,2,2,12,1,1, 4,1,1,1,738.87,famous_male04.jpg
14,22,2,2,13,2,2,16,4,4,1,646.27,famous_female16.jpg
14,22,2,2,14,2,1,23,1,1,1,546.35,famous_male23.jpg
14,22,2,2,15,2,1,12,3,3,1,542.42,famous_male12.jpg
14,22,2,2,16,1,2,18,3,3,1,538.51,famous_female18.jpg
14,22,2,2,17,1,1,20,2,2,1,606.61,famous_male20.jpg
14,22,2,2,18,1,2,20,4,4,1,882.68,famous_female20.jpg
14,22,2,2,19,2,2,10,1,1,1,830.73,famous_female10.jpg
14,22,2,2,20,1,1,14,1,1,1,562.85,famous_male14.jpg
14,22,2,2,21,2,1, 5,2,2,1,533.79,famous_male05.jpg
14,22,2,2,22,1,2, 3,2,2,1,665.94,famous_female03.jpg
14,22,2,2,23,1,2,21,4,4,1,870.03,famous_female21.jpg
14,22,2,2,24,1,2,13,2,2,1,802.11,famous_female13.jpg
14,22,2,2,25,2,1,24,1,1,1,566.20,famous_male24.jpg
14,22,2,2,26,1,1, 2,4,4,1,1138.29,famous_male02.jpg
14,22,2,2,27,2,1, 9,2,2,1,542.37,famous_male09.jpg
14,22,2,2,28,1,2, 8,3,3,1,706.46,famous_female08.jpg
14,22,2,2,29,2,1,18,4,4,1,479.50,famous_male18.jpg
14,22,2,2,30,1,1,21,2,2,1,515.64,famous_male21.jpg
14,22,2,2,31,1,1,15,4,4,1,943.75,famous_male15.jpg
14,22,2,2,32,2,1, 6,1,1,1,635.80,famous_male06.jpg
14,22,2,2,33,2,2, 7,3,3,1,607.93,famous_female07.jpg
14,22,2,2,34,1,1,17,3,3,1,580.01,famous_male17.jpg
14,22,2,2,35,2,2,19,3,3,1,783.97,famous_female19.jpg
14,22,2,2,36,2,2, 9,2,2,1,828.17,famous_female09.jpg
14,22,2,2,37,1,1,16,3,3,1,576.55,famous_male16.jpg
14,22,2,2,38,2,2,17,2,2,1,532.68,famous_female17.jpg
14,22,2,2,39,2,2, 6,1,1,1,1048.75,famous_female06.jpg
14,22,2,2,40,2,1, 3,4,4,1,1084.82,famous_male03.jpg
14,22,2,2,41,1,1,19,3,3,1,736.90,famous_male19.jpg
14,22,2,2,42,2,1, 1,2,2,1,549.01,famous_male01.jpg
14,22,2,2,43,2,2, 5,4,4,1,729.10,famous_female05.jpg
14,22,2,2,44,1,1,22,2,2,1,669.18,famous_male22.jpg
14,22,2,2,45,1,2,15,1,1,1,646.72,famous_female15.jpg
14,22,2,2,46,2,2,12,2,2,1,642.84,famous_female12.jpg
14,22,2,2,47,1,2,11,3,3,1,582.95,famous_female11.jpg
14,22,2,2,48,2,2, 2,4,4,1,474.97,famous_female02.jpg
15,25,2,1, 1,1,2, 2,2,2,1,1102.64,unknown_female02.jpg
15,25,2,1, 2,1,1,11,1,1,1,1002.79,unknown_male11.jpg
15,25,2,1, 3,1,2, 4,4,4,1,1110.88,unknown_female04.jpg
15,25,2,1, 4,2,1, 5,1,1,1,1098.97,unknown_male05.jpg
15,25,2,1, 5,2,1,13,4,4,1,1215.06,unknown_male13.jpg
15,25,2,1, 6,2,2,23,3,3,1,1451.14,unknown_female23.jpg
15,25,2,1, 7,1,1,10,1,1,1,1375.23,unknown_male10.jpg
15,25,2,1, 8,2,1, 4,2,2,1,851.32,unknown_male04.jpg
15,25,2,1, 9,1,2, 7,4,4,1,1287.41,unknown_female07.jpg
15,25,2,1,10,1,1,17,2,2,1,1395.52,unknown_male17.jpg
15,25,2,1,11,2,1, 7,2,2,1,1391.54,unknown_male07.jpg
15,25,2,1,12,2,1, 9,3,3,1,1331.67,unknown_male09.jpg
15,25,2,1,13,2,2,12,4,4,1,1095.76,unknown_female12.jpg
15,25,2,1,14,2,1, 3,4,4,1,1067.85,unknown_male03.jpg
15,25,2,1,15,2,2,24,2,2,1,863.94,unknown_female24.jpg
15,25,2,1,16,1,2,22,2,2,1,979.96,unknown_female22.jpg
15,25,2,1,17,1,1, 6,3,3,1,1168.12,unknown_male06.jpg
15,25,2,1,18,2,1, 2,3,3,1,1044.19,unknown_male02.jpg
15,25,2,1,19,2,2, 3,2,2,1,888.26,unknown_female03.jpg
15,25,2,1,20,1,2,17,4,4,1,1204.30,unknown_female17.jpg
15,25,2,1,21,1,2,20,3,3,1,1008.41,unknown_female20.jpg
15,25,2,1,22,1,1,21,4,4,1,1332.54,unknown_male21.jpg
15,25,2,1,23,2,2, 6,1,1,1,1488.57,unknown_female06.jpg
15,25,2,1,24,1,1,12,4,4,1,1140.72,unknown_male12.jpg
15,25,2,1,25,2,1,23,1,1,1,1024.81,unknown_male23.jpg
15,25,2,1,26,1,2,15,1,1,1,1060.85,unknown_female15.jpg
15,25,2,1,27,1,2,19,3,3,1,1184.99,unknown_female19.jpg
15,25,2,1,28,1,2,18,3,3,1,1077.07,unknown_female18.jpg
15,25,2,1,29,1,1,19,3,3,1,889.17,unknown_male19.jpg
15,25,2,1,30,1,1, 8,2,2,1,1157.24,unknown_male08.jpg
15,25,2,1,31,2,1,24,3,3,1,929.33,unknown_male24.jpg
15,25,2,1,32,2,2, 5,3,3,1,1109.42,unknown_female05.jpg
15,25,2,1,33,2,1,22,1,1,1,1009.51,unknown_male22.jpg
15,25,2,1,34,2,2,16,1,1,1,1173.60,unknown_female16.jpg
15,25,2,1,35,1,1,20,3,3,1,1257.63,unknown_male20.jpg
15,25,2,1,36,2,2, 8,2,2,1,1053.74,unknown_female08.jpg
15,25,2,1,37,1,2, 1,1,1,1,681.86,unknown_female01.jpg
15,25,2,1,38,2,2, 9,1,1,1,925.91,unknown_female09.jpg
15,25,2,1,39,2,2,13,3,3,1,962.01,unknown_female13.jpg
15,25,2,1,40,1,2,21,1,1,1,774.07,unknown_female21.jpg
15,25,2,1,41,1,1,14,4,4,1,1090.16,unknown_male14.jpg
15,25,2,1,42,2,1,16,4,4,1,958.28,unknown_male16.jpg
15,25,2,1,43,2,1, 1,2,2,1,738.38,unknown_male01.jpg
15,25,2,1,44,1,2,14,2,2,1,950.43,unknown_female14.jpg
15,25,2,1,45,2,2,10,4,4,1,986.49,unknown_female10.jpg
15,25,2,1,46,2,2,11,4,4,1,1222.60,unknown_female11.jpg
15,25,2,1,47,1,1,18,2,2,1,1082.73,unknown_male18.jpg
15,25,2,1,48,1,1,15,1,1,1,966.78,unknown_male15.jpg
16,25,2,2, 1,1,2, 8,3,3,1,711.55,famous_female08.jpg
16,25,2,2, 2,2,1, 4,3,3,1,1123.71,famous_male04.jpg
16,25,2,2, 3,1,1,21,4,4,1,775.82,famous_male21.jpg
16,25,2,2, 4,2,2, 2,1,1,1,1035.84,famous_female02.jpg
16,25,2,2, 5,2,2, 1,2,2,1,1087.98,famous_female01.jpg
16,25,2,2, 6,1,1,12,3,3,1,1180.05,famous_male12.jpg
16,25,2,2, 7,1,2, 6,1,1,1,1072.13,famous_female06.jpg
16,25,2,2, 8,2,2,18,4,4,1,1276.22,famous_female18.jpg
16,25,2,2, 9,1,1,17,4,4,1,1104.32,famous_male17.jpg
16,25,2,2,10,1,1,19,2,2,1,996.39,famous_male19.jpg
16,25,2,2,11,1,1,20,1,1,1,840.49,famous_male20.jpg
16,25,2,2,12,2,2,11,2,2,1,412.57,famous_female11.jpg
16,25,2,2,13,1,2, 4,2,2,1,1000.66,famous_female04.jpg
16,25,2,2,14,1,1, 3,4,4,1,860.75,famous_male03.jpg
16,25,2,2,15,1,2,22,2,2,1,888.83,famous_female22.jpg
16,25,2,2,16,2,2,12,1,1,1,1012.92,famous_female12.jpg
16,25,2,2,17,2,1,24,4,4,1,1033.01,famous_male24.jpg
16,25,2,2,18,2,2,17,4,4,1,965.10,famous_female17.jpg
16,25,2,2,19,1,1,10,3,3,1,1017.18,famous_male10.jpg
16,25,2,2,20,1,2,19,4,4,1,1397.24,famous_female19.jpg
16,25,2,2,21,2,1,13,1,1,1,1417.35,famous_male13.jpg
16,25,2,2,22,2,1,15,3,3,1,1181.42,famous_male15.jpg
16,25,2,2,23,2,1,16,4,4,1,1361.52,famous_male16.jpg
16,25,2,2,24,1,2, 9,2,2,1,1085.59,famous_female09.jpg
16,25,2,2,25,1,2, 5,4,4,1,1025.74,famous_female05.jpg
16,25,2,2,26,2,2,23,3,3,1,1029.80,famous_female23.jpg
16,25,2,2,27,2,2, 7,3,3,1,1217.89,famous_female07.jpg
16,25,2,2,28,2,1, 5,3,3,1,1277.98,famous_male05.jpg
16,25,2,2,29,1,2,24,1,1,1,1458.06,famous_female24.jpg
16,25,2,2,30,1,2, 3,1,1,1,1094.15,famous_female03.jpg
16,25,2,2,31,1,1,18,1,1,1,1074.22,famous_male18.jpg
16,25,2,2,32,2,1,11,1,1,1,534.26,famous_male11.jpg
16,25,2,2,33,2,2,15,4,4,1,1066.34,famous_female15.jpg
16,25,2,2,34,2,2,13,2,2,1,1302.44,famous_female13.jpg
16,25,2,2,35,1,2,14,4,4,1,842.58,famous_female14.jpg
16,25,2,2,36,1,1, 9,2,2,1,902.67,famous_male09.jpg
16,25,2,2,37,1,1, 7,3,3,1,1114.76,famous_male07.jpg
16,25,2,2,38,2,1, 8,1,1,1,1078.87,famous_male08.jpg
16,25,2,2,39,1,2,10,3,3,1,1370.93,famous_female10.jpg
16,25,2,2,40,2,1,23,4,4,1,1399.01,famous_male23.jpg
16,25,2,2,41,1,1,14,2,2,1,1171.12,famous_male14.jpg
16,25,2,2,42,2,2,20,3,3,1,999.20,famous_female20.jpg
16,25,2,2,43,2,2,21,1,1,1,1091.29,famous_female21.jpg
16,25,2,2,44,2,1, 6,2,2,1,1247.36,famous_male06.jpg
16,25,2,2,45,1,2,16,3,3,1,1075.47,famous_female16.jpg
16,25,2,2,46,2,1, 1,2,2,1,1383.55,famous_male01.jpg
16,25,2,2,47,1,1,22,1,1,1,1243.62,famous_male22.jpg
16,25,2,2,48,2,1, 2,2,2,1,1071.71,famous_male02.jpg
17,22,1,1, 1,1,2,20,2,2,1,843.40,unknown_female20.jpg
17,22,1,1, 2,2,1,18,3,3,1,1223.52,unknown_male18.jpg
17,22,1,1, 3,2,1, 7,2,2,1,1475.59,unknown_male07.jpg
17,22,1,1, 4,2,1,22,4,4,1,911.61,unknown_male22.jpg
17,22,1,1, 5,1,1,13,1,1,1,883.76,unknown_male13.jpg
17,22,1,1, 6,1,2,16,1,1,1,911.87,unknown_female16.jpg
17,22,1,1, 7,2,1,24,2,2,1,819.95,unknown_male24.jpg
17,22,1,1, 8,1,1,17,1,1,1,808.04,unknown_male17.jpg
17,22,1,1, 9,1,2,21,2,2,1,708.13,unknown_female21.jpg
17,22,1,1,10,1,1, 5,3,3,1,984.22,unknown_male05.jpg
17,22,1,1,11,2,1,23,1,1,1,828.30,unknown_male23.jpg
17,22,1,1,12,2,2,22,2,2,1,920.39,unknown_female22.jpg
17,22,1,1,13,1,1, 1,4,4,1,908.48,unknown_male01.jpg
17,22,1,1,14,1,1,15,2,2,1,856.56,unknown_male15.jpg
17,22,1,1,15,1,1, 8,4,4,1,764.66,unknown_male08.jpg
17,22,1,1,16,2,2,14,2,2,1,912.74,unknown_female14.jpg
17,22,1,1,17,2,2,19,3,3,1,1116.80,unknown_female19.jpg
17,22,1,1,18,1,2, 5,3,3,1,944.90,unknown_female05.jpg
17,22,1,1,19,2,2,15,1,1,1,1020.97,unknown_female15.jpg
17,22,1,1,20,2,2, 8,4,4,1,1129.06,unknown_female08.jpg
17,22,1,1,21,2,2,12,3,3,1,1069.12,unknown_female12.jpg
17,22,1,1,22,1,1, 6,1,1,1,1025.24,unknown_male06.jpg
17,22,1,1,23,2,2, 6,4,4,1,1245.33,unknown_female06.jpg
17,22,1,1,24,1,2,17,1,1,1,953.41,unknown_female17.jpg
17,22,1,1,25,2,1,21,3,3,1,1381.53,unknown_male21.jpg
17,22,1,1,26,2,1, 9,4,4,1,1153.61,unknown_male09.jpg
17,22,1,1,27,2,2, 2,1,1,1,1197.68,unknown_female02.jpg
17,22,1,1,28,1,2,18,4,4,1,921.79,unknown_female18.jpg
17,22,1,1,29,2,1,12,4,4,1,1285.78,unknown_male12.jpg
17,22,1,1,30,1,2,11,2,2,1,905.94,unknown_female11.jpg
17,22,1,1,31,1,2, 7,4,4,1,822.02,unknown_female07.jpg
17,22,1,1,32,2,1,16,1,1,1,1234.13,unknown_male16.jpg
17,22,1,1,33,2,2,24,1,1,1,1038.20,unknown_female24.jpg
17,22,1,1,34,1,1,19,3,3,1,978.31,unknown_male19.jpg
17,22,1,1,35,1,2, 4,4,4,1,1118.40,unknown_female04.jpg
17,22,1,1,36,2,2,23,2,2,1,978.47,unknown_female23.jpg
17,22,1,1,37,1,2,10,3,3,1,1334.57,unknown_female10.jpg
17,22,1,1,38,1,1,20,2,2,1,1058.63,unknown_male20.jpg
17,22,1,1,39,1,2, 9,3,3,1,958.72,unknown_female09.jpg
17,22,1,1,40,2,1,14,3,3,1,1282.84,unknown_male14.jpg
17,22,1,1,41,1,2, 1,1,1,1,1430.89,unknown_female01.jpg
17,22,1,1,42,2,2, 3,3,3,1,1674.99,unknown_female03.jpg
17,22,1,1,43,2,1,10,1,1,1,1239.07,unknown_male10.jpg
17,22,1,1,44,2,2,13,4,4,1,987.19,unknown_female13.jpg
17,22,1,1,45,1,1, 3,3,3,1,1191.24,unknown_male03.jpg
17,22,1,1,46,2,1,11,2,2,1,1035.29,unknown_male11.jpg
17,22,1,1,47,1,1, 4,4,4,1,967.41,unknown_male04.jpg
17,22,1,1,48,1,1, 2,2,2,1,1355.52,unknown_male02.jpg
18,27,2,2, 1,2,1, 8,4,4,1,1191.69,famous_male08.jpg
18,27,2,2, 2,1,2, 2,4,4,1,1211.76,famous_female02.jpg
18,27,2,2, 3,2,2,16,4,4,1,1095.85,famous_female16.jpg
18,27,2,2, 4,2,1,22,2,2,1,803.94,famous_male22.jpg
18,27,2,2, 5,2,2, 8,3,3,1,824.03,famous_female08.jpg
18,27,2,2, 6,2,1,16,2,2,1,772.11,famous_male16.jpg
18,27,2,2, 7,1,2,10,4,4,1,944.24,famous_female10.jpg
18,27,2,2, 8,2,2, 4,3,3,1,756.29,famous_female04.jpg
18,27,2,2, 9,1,1, 2,3,3,1,928.37,famous_male02.jpg
18,27,2,2,10,1,1,12,2,2,1,804.50,famous_male12.jpg
18,27,2,2,11,2,2,21,1,1,1,904.56,famous_female21.jpg
18,27,2,2,12,2,1,17,3,3,1,1444.63,famous_male17.jpg
18,27,2,2,13,2,2,13,2,2,1,1248.73,famous_female13.jpg
18,27,2,2,14,2,2, 1,2,2,1,1260.81,famous_female01.jpg
18,27,2,2,15,2,1, 7,3,3,1,1352.90,famous_male07.jpg
18,27,2,2,16,1,1,23,1,1,1,1108.99,famous_male23.jpg
18,27,2,2,17,1,1, 1,4,4,1,1137.04,famous_male01.jpg
18,27,2,2,18,1,2,12,3,3,1,1157.12,famous_female12.jpg
18,27,2,2,19,2,1,19,3,3,1,1289.24,famous_male19.jpg
18,27,2,2,20,2,2,14,1,1,1,1125.34,famous_female14.jpg
18,27,2,2,21,2,1, 5,1,1,1,1225.41,famous_male05.jpg
18,27,2,2,22,1,1,10,4,4,1,1325.52,famous_male10.jpg
18,27,2,2,23,1,2,22,3,3,1,1073.60,famous_female22.jpg
18,27,2,2,24,2,2, 9,2,2,1,1341.70,famous_female09.jpg
18,27,2,2,25,1,1,14,1,1,1,897.79,famous_male14.jpg
18,27,2,2,26,1,1,21,3,3,1,1181.86,famous_male21.jpg
18,27,2,2,27,1,2,24,1,1,1,945.95,famous_female24.jpg
18,27,2,2,28,1,1, 3,3,3,1,1293.98,famous_male03.jpg
18,27,2,2,29,2,1,18,4,4,1,1282.12,famous_male18.jpg
18,27,2,2,30,2,2,11,4,4,1,1246.23,famous_female11.jpg
18,27,2,2,31,1,2, 7,4,4,1,1274.30,famous_female07.jpg
18,27,2,2,32,2,1, 9,4,4,1,990.39,famous_male09.jpg
18,27,2,2,33,1,1,11,4,4,1,1290.47,famous_male11.jpg
18,27,2,2,34,1,2,18,1,1,1,1310.57,famous_female18.jpg
18,27,2,2,35,2,2, 3,4,4,1,802.65,famous_female03.jpg
18,27,2,2,36,1,2,19,2,2,1,1358.74,famous_female19.jpg
18,27,2,2,37,2,2,17,3,3,1,1282.79,famous_female17.jpg
18,27,2,2,38,1,1, 4,1,1,1,1134.91,famous_male04.jpg
18,27,2,2,39,1,1,13,2,2,1,970.99,famous_male13.jpg
18,27,2,2,40,1,2, 6,1,1,1,943.97,famous_female06.jpg
18,27,2,2,41,1,2,23,2,2,1,980.18,famous_female23.jpg
18,27,2,2,42,2,1,15,2,2,1,880.27,famous_male15.jpg
18,27,2,2,43,1,2,20,3,3,1,1076.31,famous_female20.jpg
18,27,2,2,44,2,1, 6,1,1,1,1120.44,famous_male06.jpg
18,27,2,2,45,1,2, 5,2,2,1,1572.61,famous_female05.jpg
18,27,2,2,46,2,1,20,1,1,1,1040.58,famous_male20.jpg
18,27,2,2,47,1,1,24,2,2,1,1228.70,famous_male24.jpg
18,27,2,2,48,2,2,15,1,1,1,1461.54,famous_female15.jpg
19,21,2,1, 1,1,1, 6,2,0,0,0.00,unknown_male06.jpg
19,21,2,1, 2,2,1, 7,3,3,1,2206.96,unknown_male07.jpg
19,21,2,1, 3,2,2,18,2,2,1,867.09,unknown_female18.jpg
19,21,2,1, 4,1,2,22,3,3,1,783.19,unknown_female22.jpg
19,21,2,1, 5,2,1, 2,1,1,1,827.27,unknown_male02.jpg
19,21,2,1, 6,2,2, 1,2,2,1,695.37,unknown_female01.jpg
19,21,2,1, 7,1,1, 8,3,3,1,563.47,unknown_male08.jpg
19,21,2,1, 8,1,1,19,1,1,1,591.54,unknown_male19.jpg
19,21,2,1, 9,2,2, 5,2,2,1,611.59,unknown_female05.jpg
19,21,2,1,10,2,1,17,4,4,1,1175.71,unknown_male17.jpg
19,21,2,1,11,1,1,16,1,1,1,419.76,unknown_male16.jpg
19,21,2,1,12,2,1, 3,2,2,1,559.89,unknown_male03.jpg
19,21,2,1,13,2,1,12,1,1,1,555.97,unknown_male12.jpg
19,21,2,1,14,2,2,21,4,4,1,856.06,unknown_female21.jpg
19,21,2,1,15,1,2,13,3,3,1,588.11,unknown_female13.jpg
19,21,2,1,16,1,2,12,2,2,1,408.23,unknown_female12.jpg
19,21,2,1,17,1,2, 3,4,4,1,748.32,unknown_female03.jpg
19,21,2,1,18,2,2, 8,3,3,1,2912.40,unknown_female08.jpg
19,21,2,1,19,1,1, 1,3,3,1,500.49,unknown_male01.jpg
19,21,2,1,20,1,2, 7,4,4,1,992.51,unknown_female07.jpg
19,21,2,1,21,2,2, 2,1,1,1,324.67,unknown_female02.jpg
19,21,2,1,22,1,1,23,1,1,1,432.75,unknown_male23.jpg
19,21,2,1,23,1,1,21,4,4,1,572.89,unknown_male21.jpg
19,21,2,1,24,2,1,14,2,2,1,432.89,unknown_male14.jpg
19,21,2,1,25,1,1,22,2,2,1,549.02,unknown_male22.jpg
19,21,2,1,26,2,2,11,4,4,1,681.11,unknown_female11.jpg
19,21,2,1,27,2,1,24,3,3,1,653.20,unknown_male24.jpg
19,21,2,1,28,2,1, 5,4,4,1,697.31,unknown_male05.jpg
19,21,2,1,29,2,2,14,4,4,1,589.37,unknown_female14.jpg
19,21,2,1,30,2,1, 9,1,1,1,673.46,unknown_male09.jpg
19,21,2,1,31,2,2,19,3,3,1,565.55,unknown_female19.jpg
19,21,2,1,32,1,2,23,1,1,1,657.58,unknown_female23.jpg
19,21,2,1,33,2,1,10,2,2,1,509.68,unknown_male10.jpg
19,21,2,1,34,2,1,13,3,3,1,617.77,unknown_male13.jpg
19,21,2,1,35,1,1,20,3,3,1,613.89,unknown_male20.jpg
19,21,2,1,36,1,2, 4,4,4,1,634.01,unknown_female04.jpg
19,21,2,1,37,1,1,15,4,4,1,662.02,unknown_male15.jpg
19,21,2,1,38,1,1,18,4,4,1,754.09,unknown_male18.jpg
19,21,2,1,39,1,2,15,1,1,1,350.25,unknown_female15.jpg
19,21,2,1,40,1,2,16,3,3,1,634.37,unknown_female16.jpg
19,21,2,1,41,2,2,20,3,3,1,478.35,unknown_female20.jpg
19,21,2,1,42,2,2,10,1,1,1,386.51,unknown_female10.jpg
19,21,2,1,43,1,2,17,1,1,1,358.60,unknown_female17.jpg
19,21,2,1,44,2,1, 4,4,4,1,602.68,unknown_male04.jpg
19,21,2,1,45,2,2, 9,1,1,1,430.76,unknown_female09.jpg
19,21,2,1,46,1,1,11,2,2,1,450.77,unknown_male11.jpg
19,21,2,1,47,1,2, 6,2,2,1,566.95,unknown_female06.jpg
19,21,2,1,48,1,2,24,2,2,1,539.03,unknown_female24.jpg
20,24,2,2, 1,2,1,23,2,2,1,573.02,famous_male23.jpg
20,24,2,2, 2,1,2,24,1,1,1,497.17,famous_female24.jpg
20,24,2,2, 3,1,1, 5,2,2,1,429.26,famous_male05.jpg
20,24,2,2, 4,2,1,17,1,1,1,681.36,famous_male17.jpg
20,24,2,2, 5,1,2, 9,4,4,1,965.43,famous_female09.jpg
20,24,2,2, 6,1,1, 9,2,2,1,777.52,famous_male09.jpg
20,24,2,2, 7,1,2,11,2,2,1,717.61,famous_female11.jpg
20,24,2,2, 8,1,1,16,3,3,1,785.63,famous_male16.jpg
20,24,2,2, 9,2,2, 6,2,2,1,669.78,famous_female06.jpg
20,24,2,2,10,2,1,22,3,3,1,649.89,famous_male22.jpg
20,24,2,2,11,2,2,19,3,3,1,917.90,famous_female19.jpg
20,24,2,2,12,1,2,18,1,1,1,658.06,famous_female18.jpg
20,24,2,2,13,1,1,10,4,4,1,814.11,famous_male10.jpg
20,24,2,2,14,2,2,12,1,1,1,738.24,famous_female12.jpg
20,24,2,2,15,1,1,15,3,3,1,822.28,famous_male15.jpg
20,24,2,2,16,2,2,10,2,2,1,762.41,famous_female10.jpg
20,24,2,2,17,2,2,20,4,4,1,774.49,famous_female20.jpg
20,24,2,2,18,2,1, 3,4,4,1,674.57,famous_male03.jpg
20,24,2,2,19,2,2,15,3,3,1,902.62,famous_female15.jpg
20,24,2,2,20,2,2,22,4,4,1,722.76,famous_female22.jpg
20,24,2,2,21,2,2, 5,2,2,1,950.84,famous_female05.jpg
20,24,2,2,22,1,1, 8,1,1,1,730.94,famous_male08.jpg
20,24,2,2,23,2,1,24,4,4,1,687.02,famous_male24.jpg
20,24,2,2,24,2,1,13,1,1,1,771.07,famous_male13.jpg
20,24,2,2,25,1,1, 6,4,4,1,759.19,famous_male06.jpg
20,24,2,2,26,1,2, 3,1,1,1,699.27,famous_female03.jpg
20,24,2,2,27,2,2, 8,3,3,1,767.30,famous_female08.jpg
20,24,2,2,28,2,1,19,3,3,1,587.45,famous_male19.jpg
20,24,2,2,29,1,2,16,4,4,1,639.53,famous_female16.jpg
20,24,2,2,30,1,1,11,1,1,1,523.63,famous_male11.jpg
20,24,2,2,31,2,1, 1,3,3,1,727.65,famous_male01.jpg
20,24,2,2,32,2,1,14,1,1,1,499.81,famous_male14.jpg
20,24,2,2,33,2,1,21,2,2,1,927.90,famous_male21.jpg
20,24,2,2,34,2,1, 7,2,2,1,667.90,famous_male07.jpg
20,24,2,2,35,1,2, 1,2,2,1,1000.06,famous_female01.jpg
20,24,2,2,36,1,1, 4,3,3,1,1052.12,famous_male04.jpg
20,24,2,2,37,1,2,13,3,3,1,456.23,famous_female13.jpg
20,24,2,2,38,1,1,20,4,4,1,740.30,famous_male20.jpg
20,24,2,2,39,2,2,21,1,1,1,1232.42,famous_female21.jpg
20,24,2,2,40,1,2, 4,4,4,1,628.45,famous_female04.jpg
20,24,2,2,41,1,1,12,2,2,1,632.58,famous_male12.jpg
20,24,2,2,42,2,2,23,1,1,1,716.69,famous_female23.jpg
20,24,2,2,43,2,1,18,4,4,1,496.75,famous_male18.jpg
20,24,2,2,44,2,2,17,4,4,1,476.84,famous_female17.jpg
20,24,2,2,45,1,2,14,3,3,1,928.93,famous_female14.jpg
20,24,2,2,46,1,2, 2,3,3,1,1532.95,famous_female02.jpg
20,24,2,2,47,1,2, 7,2,2,1,873.12,famous_female07.jpg
20,24,2,2,48,1,1, 2,1,1,1,693.19,famous_male02.jpg
21,22,2,1, 1,1,2,14,1,1,1,714.13,unknown_female14.jpg
21,22,2,1, 2,2,1,17,3,3,1,1126.29,unknown_male17.jpg
21,22,2,1, 3,2,2, 9,2,2,1,1650.37,unknown_female09.jpg
21,22,2,1, 4,1,1,15,1,1,1,1206.42,unknown_male15.jpg
21,22,2,1, 5,1,2, 5,4,4,1,1170.55,unknown_female05.jpg
21,22,2,1, 6,2,1, 9,1,1,1,1078.57,unknown_male09.jpg
21,22,2,1, 7,1,2, 4,2,2,1,1162.72,unknown_female04.jpg
21,22,2,1, 8,1,1, 6,3,3,1,1446.74,unknown_male06.jpg
21,22,2,1, 9,1,2, 8,1,1,1,1330.89,unknown_female08.jpg
21,22,2,1,10,1,2,11,2,2,1,1118.85,unknown_female11.jpg
21,22,2,1,11,1,1,24,2,2,1,779.07,unknown_male24.jpg
21,22,2,1,12,2,1,18,3,3,1,1319.13,unknown_male18.jpg
21,22,2,1,13,2,2,19,4,4,1,1707.24,unknown_female19.jpg
21,22,2,1,14,2,2,17,4,4,1,1679.34,unknown_female17.jpg
21,22,2,1,15,2,2, 7,3,3,1,1627.43,unknown_female07.jpg
21,22,2,1,16,1,2,18,3,3,1,2015.51,unknown_female18.jpg
21,22,2,1,17,1,1, 4,3,3,1,1595.56,unknown_male04.jpg
21,22,2,1,18,1,1, 5,2,2,1,1223.69,unknown_male05.jpg
21,22,2,1,19,2,2, 3,4,4,1,1507.78,unknown_female03.jpg
21,22,2,1,20,1,1,11,1,1,1,1815.87,unknown_male11.jpg
21,22,2,1,21,2,1,21,2,2,1,1763.95,unknown_male21.jpg
21,22,2,1,22,1,2,16,3,3,1,1968.04,unknown_female16.jpg
21,22,2,1,23,1,2,23,4,4,1,2964.13,unknown_female23.jpg
21,22,2,1,24,1,1, 2,2,2,1,976.20,unknown_male02.jpg
21,22,2,1,25,1,2,22,3,3,1,1212.30,unknown_female22.jpg
21,22,2,1,26,1,1,16,1,1,1,1272.39,unknown_male16.jpg
21,22,2,1,27,1,2,21,4,4,1,1812.43,unknown_female21.jpg
21,22,2,1,28,1,2, 6,2,2,1,1136.57,unknown_female06.jpg
21,22,2,1,29,2,1,20,1,1,1,1372.65,unknown_male20.jpg
21,22,2,1,30,2,2,24,3,3,1,1328.73,unknown_female24.jpg
21,22,2,1,31,1,1, 1,4,4,1,1004.82,unknown_male01.jpg
21,22,2,1,32,1,1, 8,4,4,1,800.90,unknown_male08.jpg
21,22,2,1,33,2,2,13,2,2,1,1285.00,unknown_female13.jpg
21,22,2,1,34,1,1,10,3,3,1,1201.09,unknown_male10.jpg
21,22,2,1,35,2,2,20,1,1,1,1597.17,unknown_female20.jpg
21,22,2,1,36,2,2,10,1,1,1,1209.26,unknown_female10.jpg
21,22,2,1,37,2,1,13,3,3,1,1925.34,unknown_male13.jpg
21,22,2,1,38,2,2, 2,3,3,1,1185.44,unknown_female02.jpg
21,22,2,1,39,2,1, 3,1,1,1,2101.52,unknown_male03.jpg
21,22,2,1,40,2,2,12,1,1,1,1377.62,unknown_female12.jpg
21,22,2,1,41,2,1, 7,4,4,1,1517.65,unknown_male07.jpg
21,22,2,1,42,2,2, 1,2,2,1,1113.74,unknown_female01.jpg
21,22,2,1,43,2,1,22,2,2,1,1645.87,unknown_male22.jpg
21,22,2,1,44,1,1,19,4,4,1,1361.97,unknown_male19.jpg
21,22,2,1,45,2,1,12,2,2,1,1470.04,unknown_male12.jpg
21,22,2,1,46,2,1,23,4,4,1,1202.15,unknown_male23.jpg
21,22,2,1,47,2,1,14,4,4,1,1950.22,unknown_male14.jpg
21,22,2,1,48,1,2,15,1,1,1,1042.31,unknown_female15.jpg
22,24,1,2, 1,2,2, 4,2,0,0,0.00,famous_female04.jpg
22,24,1,2, 2,2,1,11,1,2,2,1209.98,famous_male11.jpg
22,24,1,2, 3,2,1,24,1,1,1,678.09,famous_male24.jpg
22,24,1,2, 4,2,1, 3,4,4,1,962.13,famous_male03.jpg
22,24,1,2, 5,1,1,19,2,2,1,638.22,famous_male19.jpg
22,24,1,2, 6,2,1,17,2,2,1,626.31,famous_male17.jpg
22,24,1,2, 7,2,2,18,2,2,1,630.40,famous_female18.jpg
22,24,1,2, 8,1,1,18,4,4,1,826.52,famous_male18.jpg
22,24,1,2, 9,2,2, 1,2,2,1,662.58,famous_female01.jpg
22,24,1,2,10,1,2, 7,1,1,1,682.70,famous_female07.jpg
22,24,1,2,11,1,1,20,3,3,1,846.81,famous_male20.jpg
22,24,1,2,12,2,1, 5,1,1,1,714.83,famous_male05.jpg
22,24,1,2,13,2,1,10,2,2,1,518.95,famous_male10.jpg
22,24,1,2,14,2,2,23,3,3,1,811.03,famous_female23.jpg
22,24,1,2,15,2,2,11,4,4,1,983.15,famous_female11.jpg
22,24,1,2,16,1,2, 3,3,3,1,691.20,famous_female03.jpg
22,24,1,2,17,1,2,10,3,3,1,703.30,famous_female10.jpg
22,24,1,2,18,1,2, 8,4,4,1,891.37,famous_female08.jpg
22,24,1,2,19,1,2, 2,3,3,1,919.44,famous_female02.jpg
22,24,1,2,20,1,1,22,4,4,1,819.56,famous_male22.jpg
22,24,1,2,21,1,2,17,1,1,1,687.62,famous_female17.jpg
22,24,1,2,22,1,2,16,2,2,1,515.71,famous_female16.jpg
22,24,1,2,23,2,1, 4,3,3,1,695.78,famous_male04.jpg
22,24,1,2,24,1,1,13,1,1,1,971.91,famous_male13.jpg
22,24,1,2,25,1,1, 8,4,4,1,1047.99,famous_male08.jpg
22,24,1,2,26,1,2,12,2,2,1,1060.08,famous_female12.jpg
22,24,1,2,27,2,1,16,2,2,1,680.14,famous_male16.jpg
22,24,1,2,28,1,1, 9,3,3,1,1068.23,famous_male09.jpg
22,24,1,2,29,2,2,24,1,1,1,944.32,famous_female24.jpg
22,24,1,2,30,1,1, 1,1,1,1,956.45,famous_male01.jpg
22,24,1,2,31,1,2,22,2,2,1,776.49,famous_female22.jpg
22,24,1,2,32,2,2, 5,3,3,1,1116.57,famous_female05.jpg
22,24,1,2,33,1,1,23,1,1,1,1328.66,famous_male23.jpg
22,24,1,2,34,1,2, 6,4,4,1,1100.78,famous_female06.jpg
22,24,1,2,35,2,1, 7,3,3,1,1040.87,famous_male07.jpg
22,24,1,2,36,1,1,12,2,2,1,876.92,famous_male12.jpg
22,24,1,2,37,1,1, 2,3,3,1,1049.04,famous_male02.jpg
22,24,1,2,38,2,2,21,1,1,1,1285.10,famous_female21.jpg
22,24,1,2,39,2,2,13,1,1,1,1177.09,famous_female13.jpg
22,24,1,2,40,1,2, 9,4,4,1,1045.31,famous_female09.jpg
22,24,1,2,41,2,1, 6,4,4,1,1417.39,famous_male06.jpg
22,24,1,2,42,1,1,14,2,2,1,1389.45,famous_male14.jpg
22,24,1,2,43,2,2,15,3,3,1,1257.57,famous_female15.jpg
22,24,1,2,44,2,2,14,4,4,1,1181.62,famous_female14.jpg
22,24,1,2,45,1,2,20,1,1,1,1225.75,famous_female20.jpg
22,24,1,2,46,2,1,21,4,4,1,1165.83,famous_male21.jpg
22,24,1,2,47,2,2,19,4,4,1,1305.88,famous_female19.jpg
22,24,1,2,48,2,1,15,3,3,1,1133.98,famous_male15.jpg
23,25,2,1, 1,2,1, 1,4,4,1,791.39,unknown_male01.jpg
23,25,2,1, 2,1,2,18,1,1,1,555.52,unknown_female18.jpg
23,25,2,1, 3,1,1,17,1,1,1,671.63,unknown_male17.jpg
23,25,2,1, 4,1,1,24,4,4,1,691.71,unknown_male24.jpg
23,25,2,1, 5,2,1,22,2,2,1,599.80,unknown_male22.jpg
23,25,2,1, 6,2,2,19,2,2,1,763.88,unknown_female19.jpg
23,25,2,1, 7,2,1,14,2,2,1,631.97,unknown_male14.jpg
23,25,2,1, 8,2,2, 8,3,3,1,844.07,unknown_female08.jpg
23,25,2,1, 9,2,1,23,4,4,1,736.14,unknown_male23.jpg
23,25,2,1,10,2,2,21,4,4,1,652.23,unknown_female21.jpg
23,25,2,1,11,1,2, 5,2,2,1,736.32,unknown_female05.jpg
23,25,2,1,12,2,1, 5,4,4,1,876.41,unknown_male05.jpg
23,25,2,1,13,2,2,22,1,1,1,820.96,unknown_female22.jpg
23,25,2,1,14,2,2,14,2,2,1,625.09,unknown_female14.jpg
23,25,2,1,15,1,2, 4,4,4,1,773.14,unknown_female04.jpg
23,25,2,1,16,2,1, 6,3,3,1,601.17,unknown_male06.jpg
23,25,2,1,17,2,2, 1,1,1,1,661.34,unknown_female01.jpg
23,25,2,1,18,2,2,23,4,4,1,505.40,unknown_female23.jpg
23,25,2,1,19,1,2,12,3,3,1,661.52,unknown_female12.jpg
23,25,2,1,20,2,1,19,1,1,1,489.58,unknown_male19.jpg
23,25,2,1,21,2,2,16,2,2,1,693.69,unknown_female16.jpg
23,25,2,1,22,1,1,10,2,2,1,825.78,unknown_male10.jpg
23,25,2,1,23,1,2,10,2,2,1,765.87,unknown_female10.jpg
23,25,2,1,24,1,2, 7,4,4,1,937.97,unknown_female07.jpg
23,25,2,1,25,1,2, 6,3,3,1,790.05,unknown_female06.jpg
23,25,2,1,26,2,2,13,3,3,1,690.09,unknown_female13.jpg
23,25,2,1,27,2,2,17,4,4,1,710.22,unknown_female17.jpg
23,25,2,1,28,1,2, 9,4,4,1,730.31,unknown_female09.jpg
23,25,2,1,29,1,1,21,1,1,1,630.36,unknown_male21.jpg
23,25,2,1,30,1,1, 3,1,1,1,754.48,unknown_male03.jpg
23,25,2,1,31,1,2,24,1,1,1,670.59,unknown_female24.jpg
23,25,2,1,32,2,1, 9,1,1,1,1034.59,unknown_male09.jpg
23,25,2,1,33,1,1,20,4,4,1,822.74,unknown_male20.jpg
23,25,2,1,34,1,2, 3,2,2,1,722.80,unknown_female03.jpg
23,25,2,1,35,1,1, 4,4,4,1,1158.92,unknown_male04.jpg
23,25,2,1,36,1,1, 2,2,2,1,874.97,unknown_male02.jpg
23,25,2,1,37,1,2, 2,3,3,1,807.09,unknown_female02.jpg
23,25,2,1,38,2,2,15,3,3,1,939.18,unknown_female15.jpg
23,25,2,1,39,2,1,13,3,3,1,1239.28,unknown_male13.jpg
23,25,2,1,40,2,1,16,2,2,1,891.35,unknown_male16.jpg
23,25,2,1,41,1,1,18,3,3,1,911.45,unknown_male18.jpg
23,25,2,1,42,2,1, 8,1,1,1,1163.50,unknown_male08.jpg
23,25,2,1,43,1,1,15,3,3,1,943.62,unknown_male15.jpg
23,25,2,1,44,2,2,20,1,1,1,1195.71,unknown_female20.jpg
23,25,2,1,45,2,1,12,3,3,1,783.83,unknown_male12.jpg
23,25,2,1,46,1,1, 7,2,2,1,1187.88,unknown_male07.jpg
23,25,2,1,47,1,2,11,1,1,1,1223.96,unknown_female11.jpg
23,25,2,1,48,1,1,11,3,3,1,1028.06,unknown_male11.jpg
25,21,1,1, 1,1,1, 8,1,1,1,445.63,unknown_male08.jpg
25,21,1,1, 2,2,1, 9,2,2,1,577.78,unknown_male09.jpg
25,21,1,1, 3,2,1,11,2,2,1,869.86,unknown_male11.jpg
25,21,1,1, 4,2,2,15,1,1,1,761.94,unknown_female15.jpg
25,21,1,1, 5,1,2,10,4,4,1,678.04,unknown_female10.jpg
25,21,1,1, 6,2,2,18,3,3,1,690.08,unknown_female18.jpg
25,21,1,1, 7,2,1, 3,4,4,1,574.21,unknown_male03.jpg
25,21,1,1, 8,2,2,22,4,4,1,586.29,unknown_female22.jpg
25,21,1,1, 9,1,1, 6,3,3,1,654.40,unknown_male06.jpg
25,21,1,1,10,1,1,14,2,2,1,506.48,unknown_male14.jpg
25,21,1,1,11,2,1,18,4,4,1,606.55,unknown_male18.jpg
25,21,1,1,12,2,1,22,3,3,1,690.65,unknown_male22.jpg
25,21,1,1,13,2,1,13,2,2,1,566.70,unknown_male13.jpg
25,21,1,1,14,1,1,19,1,1,1,570.82,unknown_male19.jpg
25,21,1,1,15,2,2,17,2,2,1,678.87,unknown_female17.jpg
25,21,1,1,16,2,1, 1,4,4,1,842.93,unknown_male01.jpg
25,21,1,1,17,2,2,24,1,1,1,487.09,unknown_female24.jpg
25,21,1,1,18,2,2,11,4,4,1,611.18,unknown_female11.jpg
25,21,1,1,19,2,2, 1,3,3,1,743.27,unknown_female01.jpg
25,21,1,1,20,1,2,12,2,2,1,403.35,unknown_female12.jpg
25,21,1,1,21,2,2, 3,4,4,1,591.43,unknown_female03.jpg
25,21,1,1,22,2,1,10,1,1,1,515.51,unknown_male10.jpg
25,21,1,1,23,2,1,15,3,3,1,559.60,unknown_male15.jpg
25,21,1,1,24,1,2, 4,2,2,1,451.70,unknown_female04.jpg
25,21,1,1,25,2,2,23,2,2,1,391.78,unknown_female23.jpg
25,21,1,1,26,2,1, 7,1,1,1,491.86,unknown_male07.jpg
25,21,1,1,27,2,1, 4,1,1,1,447.95,unknown_male04.jpg
25,21,1,1,28,1,2,13,3,3,1,540.06,unknown_female13.jpg
25,21,1,1,29,2,2, 2,3,3,1,456.12,unknown_female02.jpg
25,21,1,1,30,2,1,23,3,3,1,324.22,unknown_male23.jpg
25,21,1,1,31,1,1, 5,1,1,1,456.30,unknown_male05.jpg
25,21,1,1,32,1,2, 6,1,1,1,516.39,unknown_female06.jpg
25,21,1,1,33,1,2, 7,3,3,1,544.43,unknown_female07.jpg
25,21,1,1,34,1,1,24,4,4,1,540.57,unknown_male24.jpg
25,21,1,1,35,2,2, 9,2,2,1,496.66,unknown_female09.jpg
25,21,1,1,36,1,1,12,2,2,1,388.74,unknown_male12.jpg
25,21,1,1,37,1,1,16,2,2,1,536.83,unknown_male16.jpg
25,21,1,1,38,1,1, 2,3,3,1,636.91,unknown_male02.jpg
25,21,1,1,39,1,2,21,2,2,1,705.00,unknown_female21.jpg
25,21,1,1,40,1,2,20,4,4,1,485.02,unknown_female20.jpg
25,21,1,1,41,1,1,21,4,4,1,545.17,unknown_male21.jpg
25,21,1,1,42,1,1,20,3,3,1,805.29,unknown_male20.jpg
25,21,1,1,43,2,2, 5,1,1,1,489.35,unknown_female05.jpg
25,21,1,1,44,1,1,17,4,4,1,429.43,unknown_male17.jpg
25,21,1,1,45,1,2, 8,1,1,1,385.52,unknown_female08.jpg
25,21,1,1,46,1,2,19,1,1,1,461.65,unknown_female19.jpg
25,21,1,1,47,1,2,16,3,3,1,537.71,unknown_female16.jpg
25,21,1,1,48,1,2,14,4,4,1,517.68,unknown_female14.jpg
26,24,2,2, 1,2,1,23,3,3,1,718.22,famous_male23.jpg
26,24,2,2, 2,1,2, 4,4,4,1,698.37,famous_female04.jpg
26,24,2,2, 3,2,2,19,1,1,1,782.47,famous_female19.jpg
26,24,2,2, 4,1,1,15,2,2,1,778.55,famous_male15.jpg
26,24,2,2, 5,1,2,22,2,2,1,990.63,famous_female22.jpg
26,24,2,2, 6,2,2, 1,3,3,1,850.72,famous_female01.jpg
26,24,2,2, 7,1,1,11,2,2,1,702.81,famous_male11.jpg
26,24,2,2, 8,2,2,18,3,3,1,1074.90,famous_female18.jpg
26,24,2,2, 9,1,2,20,1,1,1,782.98,famous_female20.jpg
26,24,2,2,10,2,1,22,3,3,1,891.10,famous_male22.jpg
26,24,2,2,11,2,2,10,2,2,1,1423.16,famous_female10.jpg
26,24,2,2,12,2,1, 2,2,2,1,995.23,famous_male02.jpg
26,24,2,2,13,1,1,18,4,4,1,799.32,famous_male18.jpg
26,24,2,2,14,2,2,16,1,1,1,1427.41,famous_female16.jpg
26,24,2,2,15,1,2, 2,1,1,1,695.50,famous_female02.jpg
26,24,2,2,16,2,1,10,1,1,1,1891.59,famous_male10.jpg
26,24,2,2,17,1,2,24,3,3,1,943.70,famous_female24.jpg
26,24,2,2,18,2,2,11,4,4,1,1835.77,famous_female11.jpg
26,24,2,2,19,1,1,13,4,4,1,1703.85,famous_male13.jpg
26,24,2,2,20,1,1,14,3,3,1,1403.89,famous_male14.jpg
26,24,2,2,21,1,2, 8,2,2,1,1088.03,famous_female08.jpg
26,24,2,2,22,1,2,21,3,3,1,820.12,famous_female21.jpg
26,24,2,2,23,2,1,16,3,3,1,1048.20,famous_male16.jpg
26,24,2,2,24,1,1,12,4,4,1,1356.25,famous_male12.jpg
26,24,2,2,25,1,2,23,3,3,1,648.39,famous_female23.jpg
26,24,2,2,26,2,1, 3,4,4,1,444.41,famous_male03.jpg
26,24,2,2,27,2,2, 6,3,3,1,816.56,famous_female06.jpg
26,24,2,2,28,1,1,21,1,1,1,1116.58,famous_male21.jpg
26,24,2,2,29,1,1,20,1,1,1,2368.70,famous_male20.jpg
26,24,2,2,30,2,1,19,1,1,1,1428.81,famous_male19.jpg
26,24,2,2,31,1,2,14,2,2,1,1432.87,famous_female14.jpg
26,24,2,2,32,1,2, 3,4,4,1,1412.96,famous_female03.jpg
26,24,2,2,33,2,2, 7,2,2,1,1729.10,famous_female07.jpg
26,24,2,2,34,1,1, 5,1,1,1,1341.17,famous_male05.jpg
26,24,2,2,35,2,2,12,4,4,1,881.29,famous_female12.jpg
26,24,2,2,36,2,1, 7,1,1,1,1149.35,famous_male07.jpg
26,24,2,2,37,2,2,17,2,2,1,1025.43,famous_female17.jpg
26,24,2,2,38,2,2,15,4,0,0,0.00,famous_female15.jpg
26,24,2,2,39,2,1,24,4,4,1,1657.60,famous_male24.jpg
26,24,2,2,40,1,1, 6,3,3,1,2389.69,famous_male06.jpg
26,24,2,2,41,1,1, 9,2,2,1,881.78,famous_male09.jpg
26,24,2,2,42,2,1, 1,4,4,1,1053.83,famous_male01.jpg
26,24,2,2,43,2,1, 8,2,2,1,809.91,famous_male08.jpg
26,24,2,2,44,2,1,17,2,2,1,1614.05,famous_male17.jpg
26,24,2,2,45,1,1, 4,3,3,1,1370.13,famous_male04.jpg
26,24,2,2,46,1,2, 5,1,1,1,1494.21,famous_female05.jpg
26,24,2,2,47,2,2,13,1,1,1,1658.30,famous_female13.jpg
26,24,2,2,48,1,2, 9,4,4,1,1358.41,famous_female09.jpg
