SID,Familiarity,Trial,Repetition,Loc,Resp,Corr,RT,ImgName
1,1,1,1,4,4,1,1570.07,wordin4.png
1,2,2,2,4,4,1,1535.69,nonwin2_8.png
1,2,3,1,4,4,1,1589.25,nonwin1.png
1,2,4,2,3,3,1,1498.8,nonwex2_12.png
1,2,5,2,1,1,1,1664.35,nonwin3.png
1,1,6,2,1,1,1,1229.91,wordex8.png
1,2,7,1,2,2,1,1459.54,nonwex8.png
1,2,8,2,4,4,1,1329.01,nonwex9.png
1,2,9,1,4,4,1,1270.53,nonwex2_2.png
1,2,10,2,1,1,1,1180.12,nonwin7.png
1,2,11,2,1,1,1,1401.7,nonwin2_6.png
1,2,12,2,2,2,1,1191.23,nonwin11.png
1,1,13,1,3,3,1,1172.73,wordex2_9.png
1,2,14,2,2,2,1,1362.34,nonwin6.png
1,1,15,2,2,2,1,1079.88,wordex7.png
1,2,16,1,1,1,1,1453.39,nonwin2_7.png
1,1,17,2,1,1,1,1042.98,wordin2_10.png
1,2,18,1,1,1,1,1224.55,nonwin2_1.png
1,1,19,2,4,4,1,1326.05,wordex2_8.png
1,1,20,1,3,3,1,627.65,wordex2_4.png
1,1,21,1,2,2,1,1593.17,wordex11.png
1,1,22,2,2,2,1,2758.75,wordin7.png
1,2,23,2,3,3,1,1420.32,nonwex10.png
1,2,24,2,2,2,1,1529.85,nonwex2_7.png
1,2,25,1,3,3,1,1191.41,nonwex2_5.png
1,1,26,2,2,2,1,1124.91,wordex4.png
1,1,27,1,4,4,1,1050.52,wordin5.png
1,2,28,2,3,3,1,1120.04,nonwex3.png
1,2,29,2,2,2,1,1317.58,nonwin2_5.png
1,1,30,2,4,4,1,1867.05,wordin11.png
1,1,31,1,4,4,1,1064.74,wordin2_2.png
1,2,32,2,1,1,1,1094.26,nonwin2_9.png
1,1,33,2,3,3,1,1467.77,wordin2.png
1,1,34,2,2,2,1,969.39,wordex2_2.png
1,2,35,2,4,4,1,1246.91,nonwex2_11.png
1,1,36,2,3,3,1,1244.5,wordin2_5.png
1,2,37,2,4,4,1,1385.93,nonwex11.png
1,1,38,2,4,4,1,1175.6,wordin3.png
1,2,39,1,4,4,1,1341.14,nonwin10.png
1,1,40,2,4,4,1,850.7,wordex6.png
1,2,41,1,1,1,1,984.28,nonwex6.png
1,2,42,1,4,4,1,1925.78,nonwin5.png
1,1,43,2,1,1,1,1507.34,wordin2_9.png
1,1,44,2,3,3,1,2448.86,wordin2_6.png
1,1,45,1,4,4,1,1526.44,wordex2_3.png
1,1,46,2,1,1,1,1267.99,wordin2_11.png
1,1,47,1,3,3,1,1089.54,wordex9.png
1,1,48,1,1,1,1,1343.13,wordex2_12.png
1,2,49,2,4,4,1,1460.68,nonwin2_3.png
1,1,50,1,1,1,1,2186.24,wordin2_12.png
1,2,51,1,2,2,1,1007.78,nonwin2_2.png
1,1,52,2,3,3,1,917.33,wordex10.png
1,2,53,1,2,2,1,1018.89,nonwin4.png
1,1,54,1,3,3,1,1192.47,wordin2_7.png
1,1,55,1,1,1,1,1182.01,wordex2_5.png
1,1,56,1,2,2,1,1187.56,wordex12.png
1,2,57,2,3,3,1,1048.92,nonwex1.png
1,1,58,2,3,3,1,1542.66,wordex2_7.png
1,2,59,2,3,3,1,972.22,nonwin2.png
1,2,60,1,1,1,1,1569.68,nonwex2_1.png
1,1,61,2,2,2,1,1375.32,wordin9.png
1,2,62,1,2,2,1,1644.87,nonwex7.png
1,1,63,2,1,1,1,2634.42,wordex2_1.png
1,2,64,1,1,1,1,976,nonwex5.png
1,1,65,1,2,2,1,1021.53,wordex2.png
1,1,66,1,4,4,1,1123.08,wordex1.png
1,2,67,1,2,2,1,1496.64,nonwin2_12.png
1,2,68,1,3,3,1,1398.19,nonwex2_6.png
1,2,69,2,2,2,1,1131.75,nonwin2_11.png
1,2,70,1,3,3,1,1001.29,nonwex12.png
1,1,71,1,2,2,1,798.85,wordin12.png
1,2,72,1,3,3,1,772.4,nonwex2_10.png
1,2,73,1,3,3,1,905.95,nonwex2_4.png
1,2,74,1,4,4,1,1223.49,nonwin12.png
1,1,75,2,4,4,1,1156.99,wordex5.png
1,1,76,1,1,1,1,1266.59,wordex2_11.png
1,1,77,1,2,2,1,1240.18,wordin2_4.png
1,2,78,2,1,1,1,1493.73,nonwex2_9.png
1,1,79,1,1,1,1,1155.2,wordin6.png
1,1,80,1,3,3,1,1120.79,wordex2_6.png
2,2,1,1,4,4,1,725.76,nonwin9.png
2,2,2,2,3,3,1,827.32,nonwex10.png
2,2,3,1,4,4,1,632.9,nonwex2_3.png
2,1,4,2,1,1,1,758.43,wordin2_8.png
2,1,5,1,1,1,1,547.97,wordin2_10.png
2,2,6,1,4,4,1,865.52,nonwin2_8.png
2,1,7,1,3,3,1,775.08,wordex3.png
2,2,8,1,2,2,1,572.64,nonwin1.png
2,1,9,2,2,2,1,562.22,wordin2_3.png
2,2,10,1,1,1,1,519.75,nonwex2_7.png
2,2,11,2,4,4,1,1093.28,nonwin2_10.png
2,2,12,2,1,1,1,650.84,nonwin10.png
2,2,13,2,4,4,1,552.4,nonwin2_3.png
2,2,14,2,2,2,1,742.01,nonwex7.png
2,1,15,2,1,1,1,624.01,wordex7.png
2,2,16,2,3,3,1,1117.57,nonwex2_2.png
2,1,17,1,2,2,1,515.12,wordin5.png
2,2,18,2,1,1,1,1032.7,nonwex9.png
2,1,19,2,4,4,1,830.23,wordin2_1.png
2,1,20,2,2,2,1,1267.8,wordin12.png
2,1,21,2,4,4,1,1345.33,wordex2_12.png
2,1,22,1,2,2,1,902.83,wordex5.png
2,2,23,1,2,2,1,660.44,nonwex2_11.png
2,1,24,1,4,4,1,1121.99,wordin2_11.png
2,2,25,2,3,3,1,967.57,nonwin2_12.png
2,2,26,1,3,3,1,1341.1,nonwex2_9.png
2,2,27,2,1,1,1,1138.66,nonwin2_2.png
2,2,28,1,2,2,1,936.2,nonwex6.png
2,1,29,2,3,3,1,605.76,wordin4.png
2,2,30,2,2,2,1,779.31,nonwin2_11.png
2,2,31,2,4,4,1,712.89,nonwin2_7.png
2,1,32,1,1,1,1,758.42,wordex2_3.png
2,2,33,1,2,2,1,779.95,nonwin2.png
2,1,34,2,2,2,1,1201.52,wordin2_5.png
2,1,35,2,1,1,1,1431.08,wordex2.png
2,2,36,1,3,3,1,860.61,nonwin8.png
2,1,37,2,1,1,1,754.18,wordin1.png
2,1,38,1,1,1,1,823.71,wordex12.png
2,2,39,1,2,2,1,725.29,nonwex1.png
2,2,40,1,3,3,1,714.84,nonwin2_5.png
2,1,41,2,4,4,1,640.38,wordin10.png
2,2,42,1,3,3,1,589.93,nonwin2_1.png
2,2,43,2,4,4,1,587.5,nonwin4.png
2,2,44,2,3,3,1,537.05,nonwex5.png
2,1,45,1,2,2,1,958.61,wordin2_12.png
2,1,46,1,4,4,1,908.16,wordex2_8.png
2,2,47,1,4,4,1,505.71,nonwex12.png
2,1,48,2,3,3,1,431.26,wordex2_1.png
2,1,49,1,1,1,1,884.81,wordex1.png
2,1,50,2,3,3,1,666.36,wordex11.png
2,2,51,2,4,4,1,687.92,nonwin2_4.png
2,2,52,2,3,3,1,653.48,nonwin7.png
2,2,53,2,2,2,1,803.02,nonwex2.png
2,1,54,1,4,4,1,816.59,wordex9.png
2,2,55,1,4,4,1,678.13,nonwex2_10.png
2,2,56,1,1,1,1,907.69,nonwex2_12.png
2,1,57,2,3,3,1,857.24,wordex8.png
2,1,58,2,4,4,1,774.78,wordin7.png
2,1,59,2,2,2,1,548.34,wordin2.png
2,2,60,2,2,2,1,569.9,nonwex8.png
2,2,61,2,1,1,1,767.45,nonwex2_6.png
2,1,62,1,3,3,1,1709.01,wordin2_7.png
2,1,63,2,4,4,1,762.45,wordin3.png
2,1,64,1,4,4,1,1000.11,wordex2_5.png
2,1,65,1,2,2,1,805.66,wordex6.png
2,2,66,2,1,1,1,851.21,nonwin12.png
2,1,67,1,3,2,0,640.76,wordex4.png
2,1,68,2,3,3,1,766.32,wordex2_6.png
2,2,69,1,1,1,1,635.88,nonwex3.png
2,2,70,1,1,1,1,777.5,nonwin5.png
2,1,71,1,3,3,1,750.98,wordin6.png
2,2,72,1,1,1,1,676.53,nonwin6.png
2,1,73,1,4,4,1,562.09,wordin11.png
2,1,74,1,1,1,1,399.63,wordin8.png
2,1,75,1,2,2,1,597.18,wordex2_10.png
2,2,76,1,3,3,1,1402.73,nonwex2_1.png
2,1,77,2,1,1,1,496.25,wordin2_4.png
2,2,78,2,2,2,1,749.86,nonwex4.png
2,1,79,1,3,3,1,731.41,wordin2_9.png
2,1,80,2,2,2,1,552.96,wordex2_9.png
3,1,1,1,3,3,1,1036.08,wordex2_2.png
3,2,2,1,4,4,1,1057.63,nonwex1.png
3,1,3,1,3,3,1,927.18,wordin3.png
3,1,4,1,1,1,1,1188.75,wordin2_7.png
3,1,5,2,4,4,1,1466.3,wordex12.png
3,2,6,2,2,2,1,1295.84,nonwin1.png
3,2,7,1,3,3,1,1101.4,nonwex2_2.png
3,1,8,1,4,4,1,1146.95,wordex2_8.png
3,1,9,2,3,3,1,1024.51,wordin7.png
3,1,10,2,1,1,1,1014.06,wordin8.png
3,1,11,2,3,3,1,1155.62,wordex2_7.png
3,2,12,2,2,2,1,1153.18,nonwin2_7.png
3,2,13,2,4,4,1,1134.72,nonwin12.png
3,2,14,2,1,1,1,1396.27,nonwex2_6.png
3,1,15,2,4,4,1,833.81,wordex2_12.png
3,2,16,1,3,3,1,1087.37,nonwex10.png
3,1,17,1,4,4,1,900.93,wordin5.png
3,1,18,2,2,2,1,1370.48,wordex6.png
3,2,19,1,2,2,1,1232.03,nonwex2_9.png
3,2,20,2,3,3,1,1261.59,nonwin5.png
3,1,21,2,2,2,1,1011.13,wordex2_1.png
3,2,22,1,4,4,1,1280.69,nonwin2_3.png
3,2,23,1,1,1,1,1070.24,nonwex3.png
3,1,24,1,2,2,1,1035.79,wordin2_11.png
3,2,25,2,1,1,1,1305.36,nonwin2_2.png
3,2,26,1,4,4,1,1286.9,nonwex6.png
3,2,27,1,2,2,1,1636.37,nonwin2_8.png
3,1,28,2,1,1,1,978.11,wordin2_9.png
3,1,29,1,1,1,1,983.55,wordex5.png
3,2,30,2,2,2,1,1093.12,nonwin11.png
3,2,31,1,3,3,1,1082.68,nonwex2_1.png
3,2,32,2,3,3,1,1176.21,nonwin2_6.png
3,1,33,1,3,3,1,1229.77,wordex8.png
3,2,34,2,2,2,1,1027.39,nonwin2_12.png
3,2,35,1,2,2,1,1232.88,nonwin2_9.png
3,1,36,2,2,2,1,886.43,wordex2_4.png
3,1,37,1,4,4,1,1155.99,wordex2_3.png
3,2,38,2,4,4,1,1049.56,nonwex2_4.png
3,1,39,2,3,3,1,1215.09,wordex4.png
3,2,40,2,2,2,1,1140.7,nonwex12.png
3,1,41,2,2,2,1,946.22,wordex2.png
3,2,42,1,3,3,1,1071.75,nonwin2_10.png
3,2,43,2,4,4,1,1053.36,nonwex4.png
3,2,44,1,2,2,1,754.81,nonwex2_8.png
3,1,45,1,2,2,1,744.39,wordin11.png
3,2,46,2,4,4,1,573.96,nonwex7.png
3,2,47,1,1,1,1,1155.53,nonwex5.png
3,2,48,2,4,4,1,1001.07,nonwin10.png
3,1,49,2,4,4,1,1030.63,wordin2_3.png
3,2,50,2,3,3,1,836.17,nonwin2.png
3,1,51,1,2,2,1,825.74,wordex1.png
3,2,52,2,1,1,1,679.27,nonwin9.png
3,1,53,1,1,1,1,1236.86,wordex2_6.png
3,2,54,1,4,4,1,2554.39,nonwin2_11.png
3,2,55,2,1,1,1,1319.96,nonwin2_4.png
3,2,56,2,3,3,1,645.48,nonwex2_5.png
3,1,57,1,2,2,1,1307.05,wordin4.png
3,2,58,2,3,3,1,968.58,nonwex9.png
3,1,59,1,4,4,1,982.15,wordex9.png
3,1,60,2,1,1,1,763.71,wordin10.png
3,2,61,1,1,1,1,953.24,nonwin8.png
3,2,62,1,4,4,1,790.81,nonwin2_1.png
3,1,63,2,2,2,1,940.36,wordex3.png
3,1,64,1,1,1,1,697.91,wordin2_2.png
3,1,65,1,3,3,1,639.48,wordex2_5.png
3,1,66,2,1,1,1,845.03,wordex7.png
3,2,67,1,1,1,1,618.56,nonwex2.png
3,1,68,2,3,3,1,696.13,wordin9.png
3,1,69,1,4,4,1,1069.67,wordin2_6.png
3,2,70,1,3,3,1,987.23,nonwex2_7.png
3,2,71,2,1,1,1,952.79,nonwex2_10.png
3,1,72,2,3,3,1,750.34,wordin2.png
3,1,73,2,4,4,1,939.9,wordex2_10.png
3,2,74,1,1,1,1,849.44,nonwex8.png
3,2,75,1,2,2,1,998.89,nonwin6.png
3,1,76,1,3,3,1,1036.55,wordin2_10.png
3,1,77,1,2,2,1,1586.13,wordin2_12.png
3,1,78,2,1,1,1,871.69,wordex2_9.png
3,1,79,1,1,1,1,645.21,wordin12.png
3,1,80,2,4,4,1,1130.77,wordin2_1.png
4,2,1,2,1,1,1,518.51,nonwex9.png
4,1,2,2,3,3,1,1532.02,wordin4.png
4,2,3,2,3,3,1,881.58,nonwin4.png
4,2,4,1,1,1,1,863.13,nonwex5.png
4,1,5,1,2,2,1,940.69,wordin2_8.png
4,2,6,2,1,1,1,802.14,nonwin5.png
4,2,7,1,1,1,1,1351.8,nonwin2_4.png
4,2,8,1,2,2,1,1573.34,nonwin1.png
4,1,9,2,1,1,1,1210.89,wordin2_3.png
4,1,10,2,3,3,1,2048.44,wordin8.png
4,1,11,2,4,4,1,1622.01,wordex1.png
4,1,12,1,2,2,1,1131.56,wordin2_2.png
4,1,13,1,2,2,1,1113.2,wordex12.png
4,2,14,1,3,3,1,1894.67,nonwin2_1.png
4,2,15,2,2,2,1,1924.22,nonwex12.png
4,1,16,2,2,2,1,825.78,wordex11.png
4,2,17,2,2,2,1,1503.23,nonwin2_11.png
4,1,18,1,3,3,1,1852.86,wordex2_5.png
4,2,19,1,4,4,1,1722.43,nonwex2_5.png
4,1,20,1,1,1,1,975.98,wordex5.png
4,1,21,2,2,2,1,1685.52,wordex3.png
4,1,22,2,3,3,1,1571.1,wordex2_11.png
4,2,23,2,2,2,1,1560.65,nonwin2_7.png
4,1,24,1,4,4,1,1614.2,wordin6.png
4,1,25,2,4,4,1,1667.76,wordex2_9.png
4,1,26,2,3,3,1,1201.32,wordin2_4.png
4,1,27,1,1,1,1,1110.87,wordex2_7.png
4,2,28,1,4,4,1,2100.44,nonwex2_2.png
4,2,29,1,1,1,1,1321.96,nonwex2_3.png
4,2,30,1,4,4,1,1783.54,nonwex2_12.png
4,2,31,2,3,3,1,1429.06,nonwin2_12.png
4,2,32,2,3,3,1,1667.62,nonwex2_10.png
4,1,33,1,1,1,1,1393.13,wordex2_4.png
4,2,34,1,1,1,1,1958.74,nonwex11.png
4,1,35,2,4,4,1,1468.29,wordex6.png
4,2,36,2,4,4,1,2137.83,nonwex2_1.png
4,1,37,2,1,1,1,1823.4,wordex8.png
4,2,38,1,3,3,1,2156.96,nonwex2_6.png
4,1,39,2,2,2,1,1266.51,wordex7.png
4,1,40,1,4,4,1,1104.05,wordex2_2.png
4,2,41,1,3,3,1,1125.61,nonwin12.png
4,1,42,2,2,2,1,643.16,wordin1.png
4,2,43,1,4,4,1,928.7,nonwin2_10.png
4,2,44,1,3,3,1,1702.27,nonwex2_9.png
4,2,45,2,4,4,1,2683.82,nonwin7.png
4,2,46,2,1,1,1,1097.36,nonwin2_2.png
4,2,47,2,2,2,1,1134.93,nonwex2_8.png
4,1,48,1,1,1,1,1036.48,wordin3.png
4,1,49,1,3,3,1,1202.05,wordex2_10.png
4,1,50,2,1,1,1,927.58,wordin2_1.png
4,2,51,2,1,1,1,1245.26,nonwin2_6.png
4,1,52,2,1,1,1,514.68,wordex2_1.png
4,2,53,1,4,4,1,1448.24,nonwin10.png
4,2,54,1,3,3,1,1797.8,nonwex10.png
4,2,55,2,4,4,1,1347.34,nonwin2_5.png
4,1,56,1,2,2,1,992.9,wordin10.png
4,1,57,1,2,2,1,902.45,wordin2.png
4,1,58,2,4,4,1,1020.01,wordex2_6.png
4,2,59,2,4,4,1,1329.58,nonwin9.png
4,2,60,1,2,2,1,2007.11,nonwin3.png
4,1,61,1,3,3,1,1620.64,wordex2.png
4,2,62,1,2,2,1,1434.24,nonwin2.png
4,2,63,1,2,2,1,1399.78,nonwin2_3.png
4,1,64,1,3,3,1,1501.33,wordin2_6.png
4,1,65,1,4,4,1,1106.88,wordex10.png
4,2,66,1,1,1,1,1176.43,nonwin2_8.png
4,1,67,1,1,1,1,1765.97,wordin12.png
4,1,68,2,3,3,1,1979.55,wordex2_12.png
4,2,69,2,3,3,1,1241.1,nonwex2_4.png
4,2,70,2,4,4,1,1534.65,nonwex2_7.png
4,2,71,2,3,3,1,1372.22,nonwex6.png
4,1,72,1,4,4,1,985.75,wordin2_11.png
4,2,73,2,2,2,1,799.32,nonwex2.png
4,1,74,2,1,1,1,1580.88,wordex4.png
4,1,75,2,2,2,1,874.4,wordin2_10.png
4,2,76,1,2,2,1,695.99,nonwex1.png
4,1,77,1,4,4,1,1125.52,wordin9.png
4,1,78,1,3,3,1,763.07,wordin5.png
4,1,79,2,4,4,1,1048.62,wordex9.png
4,2,80,2,1,1,1,1630.17,nonwex4.png
5,1,1,1,4,4,1,548.97,wordin2_2.png
5,2,2,2,1,1,1,946.66,nonwin2_8.png
5,1,3,2,1,1,1,672.22,wordin2_9.png
5,2,4,1,4,4,1,637.75,nonwin12.png
5,1,5,2,2,2,1,755.31,wordex6.png
5,1,6,2,1,1,1,1000.8,wordex3.png
5,1,7,2,2,2,1,718.41,wordin2_7.png
5,2,8,1,4,4,1,875.97,nonwex6.png
5,2,9,2,2,2,1,1105.52,nonwex2_8.png
5,2,10,2,1,1,1,831.08,nonwex2.png
5,1,11,1,4,4,1,1036.63,wordex9.png
5,2,12,2,3,3,1,922.21,nonwin5.png
5,2,13,2,2,2,1,1703.74,nonwex12.png
5,2,14,1,2,2,1,989.31,nonwin2_1.png
5,2,15,2,4,4,1,1098.87,nonwin2_3.png
5,1,16,1,1,1,1,584.33,wordin2_12.png
5,1,17,1,2,2,1,749.94,wordex5.png
5,1,18,2,4,4,1,835.51,wordin12.png
5,2,19,1,3,3,1,929.05,nonwin8.png
5,2,20,2,4,4,1,862.6,nonwex2_11.png
5,2,21,2,3,3,1,1348.15,nonwex2_5.png
5,1,22,1,4,4,1,881.72,wordex2_9.png
5,1,23,1,2,2,1,679.26,wordex2_8.png
5,2,24,2,1,1,1,788.8,nonwex10.png
5,1,25,2,4,4,1,658.37,wordin5.png
5,2,26,1,4,4,1,912.04,nonwex4.png
5,2,27,1,1,1,1,957.47,nonwin7.png
5,1,28,1,1,1,1,739.03,wordex1.png
5,2,29,2,3,3,1,944.56,nonwin6.png
5,1,30,2,3,3,1,838.02,wordex8.png
5,2,31,1,3,3,1,899.68,nonwin11.png
5,2,32,1,4,4,1,809.24,nonwin2_5.png
5,1,33,1,2,2,1,750.79,wordex4.png
5,2,34,2,4,4,1,1052.35,nonwex2_6.png
5,2,35,2,1,1,1,793.9,nonwex2_1.png
5,1,36,2,3,3,1,1031.43,wordex2_2.png
5,2,37,1,3,3,1,893,nonwex2_7.png
5,1,38,1,3,3,1,834.55,wordin2_6.png
5,1,39,1,1,1,1,744.11,wordin2_10.png
5,1,40,1,4,4,1,773.66,wordin11.png
5,1,41,1,3,3,1,1027.22,wordin2.png
5,2,42,1,2,2,1,752.76,nonwin1.png
5,1,43,2,3,3,1,1038.32,wordin4.png
5,1,44,2,3,3,1,843.88,wordex2_1.png
5,1,45,2,4,4,1,825.42,wordex2_10.png
5,1,46,1,4,4,1,630.97,wordin10.png
5,1,47,2,2,2,1,740.53,wordex2_6.png
5,2,48,1,1,1,1,1010.08,nonwex2_2.png
5,1,49,2,1,1,1,519.65,wordex11.png
5,2,50,1,1,1,1,813.2,nonwex2_10.png
5,2,51,2,2,2,1,1074.87,nonwin10.png
5,2,52,2,4,4,1,808.3,nonwin2_4.png
5,2,53,2,1,1,1,821.9,nonwex7.png
5,1,54,1,2,2,1,907.33,wordin2_8.png
5,2,55,2,3,3,1,712.97,nonwex3.png
5,2,56,1,1,1,1,590.51,nonwin4.png
5,2,57,1,1,1,1,796.07,nonwex1.png
5,2,58,2,2,2,1,521.62,nonwin2_2.png
5,1,59,2,4,4,1,863.17,wordex2.png
5,1,60,1,3,3,1,836.75,wordex2_4.png
5,1,61,1,3,3,1,666.27,wordex2_5.png
5,2,62,1,3,3,1,767.85,nonwin2_9.png
5,1,63,1,1,1,1,845.38,wordin9.png
5,2,64,1,2,2,1,594.95,nonwex2_3.png
5,1,65,1,2,2,1,816.48,wordex7.png
5,1,66,1,1,1,1,934.05,wordin7.png
5,2,67,2,2,2,1,835.59,nonwex5.png
5,2,68,1,4,4,1,993.14,nonwex2_12.png
5,1,69,2,3,3,1,1070.69,wordin8.png
5,1,70,2,2,2,1,988.25,wordex10.png
5,2,71,1,3,3,1,1617.81,nonwex9.png
5,2,72,2,3,3,1,1863.36,nonwex2_9.png
5,1,73,1,3,3,1,908.92,wordin1.png
5,2,74,2,4,4,1,490.55,nonwin2_12.png
5,1,75,2,2,2,1,1072.02,wordin6.png
5,2,76,1,2,2,1,485.59,nonwin9.png
5,1,77,2,1,1,1,787.07,wordin2_1.png
5,1,78,2,4,4,1,968.67,wordin2_3.png
5,2,79,1,2,2,1,1350.23,nonwin2_10.png
5,1,80,2,1,1,1,1059.78,wordin2_4.png
6,1,1,2,4,4,1,2604.14,wordex2_12.png
6,1,2,1,3,3,1,897.71,wordin2_11.png
6,2,3,2,3,3,1,1167.26,nonwin2_2.png
6,2,4,1,2,2,1,844.82,nonwex2_9.png
6,2,5,2,2,2,1,554.36,nonwin2_12.png
6,2,6,2,2,2,1,1143.91,nonwex4.png
6,2,7,1,2,2,1,813.45,nonwex2_1.png
6,1,8,2,1,1,1,739.02,wordex2_8.png
6,1,9,2,1,1,1,848.58,wordin2_3.png
6,1,10,1,1,1,1,662.12,wordin2_8.png
6,2,11,1,1,1,1,523.67,nonwin10.png
6,2,12,2,3,3,1,1645.77,nonwin12.png
6,2,13,1,4,4,1,1235.28,nonwin2_6.png
6,1,14,2,1,1,1,1104.84,wordin11.png
6,2,15,1,3,3,1,950.4,nonwex2_5.png
6,1,16,1,3,3,1,611.95,wordin12.png
6,1,17,2,1,1,1,641.5,wordex2_5.png
6,1,18,1,1,1,1,871.04,wordex8.png
6,2,19,1,1,1,1,452.61,nonwex8.png
6,1,20,2,4,4,1,1170.16,wordex10.png
6,2,21,2,1,1,1,671.71,nonwex5.png
6,2,22,2,2,2,1,621.26,nonwin2_1.png
6,1,23,1,3,3,1,1426.83,wordin2.png
6,2,24,2,4,4,1,752.37,nonwin2_8.png
6,2,25,1,1,1,1,517.85,nonwex2_2.png
6,2,26,1,1,1,1,419.49,nonwin2.png
6,1,27,2,3,3,1,1201.08,wordex7.png
6,1,28,1,4,4,1,574.6,wordin3.png
6,1,29,2,4,4,1,532.14,wordin7.png
6,2,30,2,4,4,1,497.72,nonwin2_7.png
6,2,31,1,3,3,1,679.25,nonwex2_4.png
6,1,32,2,3,3,1,524.8,wordin2_12.png
6,2,33,1,4,4,1,538.35,nonwex2_10.png
6,2,34,1,2,2,1,855.89,nonwin5.png
6,1,35,2,2,2,1,581.47,wordex1.png
6,2,36,1,3,3,1,1075.01,nonwex2_12.png
6,1,37,2,4,4,1,792.57,wordex5.png
6,1,38,2,2,2,1,686.13,wordex2_4.png
6,1,39,2,4,4,1,755.66,wordin2_7.png
6,1,40,1,1,1,1,641.31,wordex2_10.png
6,1,41,2,2,2,1,566.78,wordin10.png
6,2,42,2,3,3,1,844.31,nonwex9.png
6,1,43,1,2,2,1,897.89,wordex2_9.png
6,1,44,1,2,2,1,511.43,wordex3.png
6,2,45,2,3,3,1,453,nonwex12.png
6,1,46,2,3,3,1,698.61,wordin6.png
6,1,47,2,1,1,1,600.09,wordex2_11.png
6,2,48,1,4,4,1,581.65,nonwex2_11.png
6,2,49,2,1,1,1,547.19,nonwin8.png
6,1,50,2,2,2,1,640.76,wordin2_5.png
6,2,51,2,2,2,1,446.32,nonwin2_10.png
6,1,52,2,2,2,1,451.84,wordin9.png
6,1,53,1,3,3,1,441.41,wordin2_10.png
6,2,54,2,3,3,1,518.94,nonwex6.png
6,2,55,1,2,2,1,868.5,nonwex2.png
6,1,56,2,3,3,1,970.07,wordex2_6.png
6,2,57,1,3,3,1,591.62,nonwin9.png
6,1,58,1,2,2,1,701.18,wordex2.png
6,2,59,1,4,4,1,738.73,nonwin3.png
6,2,60,1,3,3,1,1048.28,nonwex3.png
6,2,61,1,2,2,1,797.84,nonwin1.png
6,1,62,2,3,3,1,515.34,wordex2_3.png
6,1,63,1,2,2,1,416.95,wordin2_9.png
6,2,64,2,1,1,1,670.5,nonwin2_3.png
6,1,65,1,4,4,1,668.03,wordex2_2.png
6,2,66,1,4,4,1,441.6,nonwin2_11.png
6,2,67,2,4,4,1,847.17,nonwin11.png
6,2,68,1,1,0,0,0,nonwin2_5.png
6,2,69,2,1,0,0,0,nonwex10.png
6,1,70,1,3,3,1,1199.82,wordin2_2.png
6,1,71,1,4,4,1,621.37,wordex4.png
6,2,72,2,1,1,1,418.93,nonwin6.png
6,1,73,1,4,4,1,392.47,wordex11.png
6,1,74,1,1,1,1,430.02,wordex12.png
6,2,75,2,4,4,1,467.54,nonwex2_7.png
6,2,76,2,2,2,1,961.12,nonwex2_6.png
6,2,77,2,4,4,1,542.66,nonwin2_4.png
6,1,78,1,4,4,1,516.23,wordin8.png
6,1,79,1,1,1,1,369.79,wordex2_1.png
6,1,80,1,2,1,0,767.34,wordin2_4.png
7,1,1,1,2,2,1,460.94,wordex2_10.png
7,2,2,1,3,3,1,754.5,nonwin9.png
7,1,3,1,3,3,1,776.07,wordex6.png
7,2,4,1,1,1,1,917.54,nonwin10.png
7,1,5,2,4,4,1,835.15,wordin2_12.png
7,2,6,1,2,2,1,928.7,nonwex2_3.png
7,1,7,2,2,2,1,982.26,wordin2_1.png
7,2,8,1,1,1,1,555.82,nonwin2_8.png
7,2,9,2,3,3,1,1041.37,nonwex2_11.png
7,2,10,2,3,3,1,822.9,nonwin1.png
7,1,11,2,2,2,1,900.48,wordex2_8.png
7,2,12,1,4,4,1,778.02,nonwin2_2.png
7,1,13,1,1,1,1,807.58,wordin2_4.png
7,1,14,2,1,1,1,781.12,wordex2_9.png
7,2,15,2,4,4,1,762.59,nonwex7.png
7,2,16,2,4,4,1,880.22,nonwex8.png
7,2,17,2,4,4,1,717.8,nonwin2.png
7,2,18,1,3,3,1,787.34,nonwin11.png
7,2,19,1,4,4,1,520.89,nonwex6.png
7,1,20,1,4,4,1,926.45,wordin2_11.png
7,1,21,1,3,3,1,980,wordex11.png
7,1,22,2,2,2,1,1001.49,wordex2_2.png
7,2,23,1,1,1,1,927.11,nonwex9.png
7,2,24,1,3,3,1,788.66,nonwin2_7.png
7,2,25,2,2,2,1,1186.19,nonwin2_4.png
7,1,26,2,3,3,1,799.76,wordin2_5.png
7,1,27,1,4,4,1,965.31,wordex12.png
7,1,28,2,1,1,1,850.98,wordex9.png
7,2,29,2,1,1,1,728.42,nonwin4.png
7,2,30,2,3,3,1,957.98,nonwin2_9.png
7,1,31,1,3,3,1,843.53,wordex2_1.png
7,1,32,1,2,2,1,1001.07,wordex1.png
7,1,33,1,4,4,1,918.63,wordex10.png
7,2,34,1,2,2,1,980.19,nonwex5.png
7,1,35,2,3,3,1,953.75,wordin2_10.png
7,2,36,2,2,2,1,1119.29,nonwex2_9.png
7,1,37,1,4,4,1,900.85,wordin4.png
7,2,38,1,4,4,1,898.41,nonwin2_3.png
7,1,39,2,1,1,1,879.95,wordex2_4.png
7,2,40,1,1,1,1,941.54,nonwex2_4.png
7,1,41,1,2,2,1,699.05,wordin2_2.png
7,1,42,1,3,3,1,832.61,wordin8.png
7,2,43,2,1,1,1,902.16,nonwex12.png
7,1,44,2,1,1,1,707.72,wordin11.png
7,2,45,1,2,2,1,809.27,nonwex2_10.png
7,2,46,2,3,3,1,981.03,nonwex10.png
7,2,47,1,2,2,1,1122.59,nonwex2_12.png
7,2,48,2,2,2,1,1008.14,nonwin6.png
7,1,49,2,2,2,1,1029.7,wordin2_8.png
7,2,50,1,4,4,1,947.25,nonwin2_11.png
7,2,51,1,2,2,1,824.8,nonwin7.png
7,1,52,2,2,2,1,1086.36,wordex3.png
7,2,53,1,3,3,1,1251.94,nonwin5.png
7,1,54,2,3,3,1,961.48,wordex7.png
7,1,55,1,1,1,1,1223.01,wordex2_3.png
7,2,56,2,4,4,1,1012.56,nonwex1.png
7,1,57,1,1,1,1,1106.12,wordin2_3.png
7,2,58,2,1,1,1,999.6,nonwin2_10.png
7,1,59,1,4,4,1,1037.23,wordin9.png
7,1,60,2,4,4,1,962.78,wordex2_11.png
7,1,61,1,1,1,1,1248.32,wordex2_7.png
7,1,62,2,4,4,1,1061.88,wordex8.png
7,2,63,1,3,3,1,827.43,nonwex2.png
7,2,64,2,2,2,1,880.98,nonwex3.png
7,1,65,1,2,2,1,1038.46,wordin2_7.png
7,1,66,2,1,1,1,1212.1,wordex2_6.png
7,2,67,2,4,4,1,1257.64,nonwin2_1.png
7,1,68,2,3,3,1,943.19,wordin7.png
7,2,69,2,2,2,1,1148.75,nonwex2_8.png
7,2,70,1,4,4,1,986.31,nonwex2_6.png
7,2,71,2,3,3,1,1151.86,nonwex2_7.png
7,2,72,2,1,1,1,1029.4,nonwex4.png
7,1,73,1,2,2,1,1026.96,wordin3.png
7,1,74,1,3,3,1,1016.55,wordin10.png
7,1,75,2,4,4,1,1182.08,wordex4.png
7,1,76,2,3,3,1,1043.61,wordex2.png
7,2,77,1,1,1,1,1017.17,nonwex2_2.png
7,2,78,2,1,1,1,926.73,nonwex11.png
7,1,79,2,4,4,1,988.27,wordex2_12.png
7,1,80,1,1,1,1,1073.83,wordin2_6.png
8,2,1,2,1,1,1,1178.09,nonwex2_4.png
8,2,2,1,3,3,1,1063.67,nonwex10.png
8,2,3,2,2,2,1,973.22,nonwin2_8.png
8,1,4,1,3,3,1,866.83,wordin2_9.png
8,2,5,1,2,2,1,736.38,nonwin2_1.png
8,1,6,2,2,2,1,773.86,wordex2_7.png
8,2,7,2,1,1,1,803.45,nonwex1.png
8,1,8,1,4,4,1,776.99,wordin4.png
8,2,9,1,4,4,1,790.55,nonwin7.png
8,2,10,1,3,3,1,580.09,nonwex2_11.png
8,1,11,1,4,4,1,489.65,wordex2_1.png
8,2,12,1,2,2,1,647.25,nonwin2_9.png
8,1,13,1,3,3,1,508.75,wordin5.png
8,1,14,1,1,1,1,762.31,wordex2_5.png
8,2,15,2,1,1,1,815.87,nonwex2_10.png
8,2,16,1,1,1,1,557.45,nonwex2_6.png
8,1,17,2,4,4,1,538.96,wordin7.png
8,2,18,1,4,4,1,536.53,nonwex2_3.png
8,1,19,2,1,1,1,758.07,wordex2_10.png
8,1,20,1,1,1,1,667.68,wordex6.png
8,2,21,1,3,3,1,1105.18,nonwex2.png
8,1,22,1,1,1,1,670.77,wordex11.png
8,2,23,2,4,4,1,1060.28,nonwin1.png
8,2,24,2,1,1,1,585.85,nonwex2_7.png
8,2,25,2,3,3,1,727.37,nonwin3.png
8,2,26,1,4,4,1,564.96,nonwin11.png
8,2,27,2,2,2,1,610.55,nonwex9.png
8,2,28,1,4,4,1,632.06,nonwin9.png
8,1,29,1,3,3,1,669.64,wordin2_5.png
8,2,30,1,4,4,1,883.2,nonwin2_5.png
8,1,31,1,4,4,1,664.71,wordin2_4.png
8,2,32,1,1,1,1,694.3,nonwex2_12.png
8,1,33,2,1,1,1,811.86,wordex4.png
8,2,34,1,1,1,1,569.36,nonwex3.png
8,2,35,2,3,3,1,1094.92,nonwex12.png
8,2,36,1,1,1,1,740.48,nonwin4.png
8,1,37,1,2,2,1,890.03,wordin10.png
8,1,38,1,3,3,1,551.58,wordex9.png
8,1,39,2,3,3,1,1181.14,wordex7.png
8,2,40,1,3,3,1,850.68,nonwin2_6.png
8,1,41,1,2,2,1,1544.28,wordex3.png
8,1,42,2,2,2,1,965.83,wordin2_8.png
8,1,43,2,1,1,1,667.35,wordin9.png
8,1,44,2,2,2,1,800.89,wordex2.png
8,1,45,1,2,2,1,486.49,wordex2_3.png
8,1,46,2,4,4,1,524.05,wordex2_12.png
8,2,47,2,2,2,1,705.55,nonwin10.png
8,1,48,1,2,2,1,447.11,wordin6.png
8,1,49,2,4,4,1,676.71,wordex8.png
8,2,50,2,4,4,1,394.21,nonwex4.png
8,1,51,2,1,1,1,735.77,wordin2_6.png
8,2,52,2,4,4,1,437.32,nonwin8.png
8,2,53,1,1,1,1,618.87,nonwex11.png
8,1,54,1,2,2,1,616.42,wordin2_10.png
8,1,55,1,1,1,1,686.02,wordex10.png
8,1,56,2,1,1,1,675.54,wordex5.png
8,1,57,1,1,1,1,793.15,wordin2.png
8,2,58,2,1,1,1,750.68,nonwex5.png
8,2,59,2,2,2,1,940.23,nonwin2_12.png
8,2,60,2,3,3,1,769.75,nonwex2_5.png
8,1,61,2,2,2,1,559.27,wordex2_2.png
8,2,62,1,2,2,1,492.85,nonwin2_2.png
8,1,63,1,4,4,1,546.44,wordin1.png
8,1,64,2,3,3,1,487.96,wordex2_6.png
8,2,65,2,4,4,1,541.55,nonwex2_2.png
8,1,66,2,3,3,1,507.05,wordex2_11.png
8,2,67,1,2,2,1,728.58,nonwin2_11.png
8,1,68,2,4,4,1,646.17,wordin12.png
8,1,69,2,3,3,1,659.69,wordin8.png
8,2,70,2,3,3,1,633.28,nonwin2_4.png
8,1,71,1,4,4,1,438.76,wordin3.png
8,1,72,2,4,4,1,396.38,wordex2_4.png
8,1,73,1,3,3,1,657.93,wordex12.png
8,1,74,2,2,2,1,479.49,wordin2_12.png
8,2,75,2,2,2,1,653.05,nonwex7.png
8,1,76,2,3,3,1,474.56,wordin2_11.png
8,2,77,2,3,3,1,424.14,nonwin6.png
8,2,78,1,2,2,1,629.7,nonwin12.png
8,2,79,2,4,4,1,523.25,nonwin2_3.png
8,2,80,1,3,3,1,400.8,nonwin2.png
9,2,1,1,1,1,1,522.89,nonwin8.png
9,1,2,1,4,4,1,1016.51,wordin4.png
9,1,3,2,4,4,1,1094.05,wordin2_9.png
9,1,4,2,1,1,1,923.61,wordin3.png
9,1,5,1,1,1,1,865.1,wordex9.png
9,1,6,1,4,4,1,1030.73,wordin8.png
9,2,7,2,1,1,1,860.26,nonwin2_10.png
9,1,8,1,4,4,1,913.83,wordex5.png
9,1,9,1,3,3,1,1191.39,wordex3.png
9,1,10,1,2,2,1,916.93,wordex2_11.png
9,1,11,2,3,3,1,1018.48,wordin2_1.png
9,1,12,2,1,1,1,1144.05,wordin2_3.png
9,2,13,2,3,3,1,965.59,nonwin5.png
9,1,14,1,3,3,1,1099.12,wordex11.png
9,1,15,2,1,1,1,1032.67,wordex2_10.png
9,2,16,1,1,1,1,1078.24,nonwex2_2.png
9,2,17,2,3,3,1,1299.74,nonwex2_10.png
9,1,18,1,4,4,1,1233.27,wordin2_12.png
9,2,19,2,3,3,1,966.91,nonwin2_11.png
9,2,20,1,2,2,1,1100.51,nonwex2_6.png
9,2,21,1,4,4,1,1097.98,nonwex5.png
9,1,22,2,3,3,1,1071.53,wordex1.png
9,1,23,2,1,1,1,853.04,wordin9.png
9,2,24,2,3,3,1,914.63,nonwex7.png
9,1,25,1,2,2,1,1496.18,wordex2_4.png
9,1,26,1,1,1,1,1173.79,wordex2_12.png
9,1,27,1,3,3,1,1075.33,wordex6.png
9,2,28,2,1,1,1,1000.9,nonwin2_2.png
9,1,29,2,2,2,1,1118.34,wordin2_6.png
9,1,30,2,3,3,1,1147.97,wordin2_7.png
9,1,31,1,2,2,1,1137.46,wordex2_7.png
9,1,32,2,2,2,1,1159.09,wordex2_5.png
9,1,33,2,4,4,1,1180.64,wordex2_3.png
9,2,34,2,2,2,1,1098.2,nonwex4.png
9,2,35,1,4,4,1,1391.73,nonwin6.png
9,2,36,1,2,2,1,1277.32,nonwex2_12.png
9,1,37,2,1,1,1,1002.68,wordin2_10.png
9,2,38,1,2,2,1,1096.42,nonwex2_7.png
9,1,39,2,3,3,1,1070.04,wordin10.png
9,2,40,1,3,3,1,1435.54,nonwin2_1.png
9,2,41,1,3,3,1,961.06,nonwin9.png
9,2,42,1,1,1,1,1238.62,nonwin2.png
9,1,43,2,4,4,1,1044.19,wordex2_8.png
9,2,44,1,1,1,1,673.72,nonwex1.png
9,1,45,2,4,4,1,1103.3,wordin2_2.png
9,2,46,1,1,1,1,1196.85,nonwex2_8.png
9,2,47,2,1,1,1,1130.38,nonwin2_7.png
9,1,48,2,4,4,1,1103.95,wordex2.png
9,1,49,2,2,2,1,1197.48,wordex8.png
9,1,50,1,3,3,1,995.04,wordex4.png
9,2,51,2,4,4,1,1320.61,nonwin7.png
9,1,52,1,1,1,1,1230.15,wordex2_2.png
9,2,53,2,4,4,1,1323.7,nonwex2.png
9,1,54,1,2,2,1,1401.28,wordin5.png
9,1,55,1,2,2,1,1302.8,wordex2_6.png
9,2,56,1,2,2,1,1260.38,nonwin2_5.png
9,2,57,2,4,4,1,1345.93,nonwin4.png
9,2,58,1,4,4,1,1279.48,nonwex2_4.png
9,1,59,2,2,2,1,2045.03,wordin2_11.png
9,1,60,1,4,4,1,1866.5,wordex10.png
9,1,61,2,2,2,1,1616.14,wordex7.png
9,2,62,2,1,1,1,1165.69,nonwex2_5.png
9,2,63,2,2,2,1,1451.24,nonwex8.png
9,2,64,2,4,4,1,1328.78,nonwex10.png
9,2,65,2,4,4,1,1646.31,nonwex2_3.png
9,2,66,2,2,2,1,1339.9,nonwin1.png
9,2,67,1,4,4,1,1625.45,nonwex2_11.png
9,1,68,2,3,3,1,1263,wordin2_8.png
9,2,69,2,2,2,1,1212.55,nonwex3.png
9,1,70,1,1,1,1,1514.13,wordin12.png
9,2,71,2,1,1,1,1311.68,nonwin2_9.png
9,2,72,1,3,3,1,997.21,nonwin2_3.png
9,2,73,1,3,3,1,506.77,nonwex2_9.png
9,2,74,1,2,2,1,1064.28,nonwin12.png
9,2,75,2,3,3,1,965.85,nonwex2_1.png
9,1,76,1,3,3,1,715.43,wordin11.png
9,2,77,1,3,3,1,872.99,nonwex9.png
9,1,78,1,1,1,1,1166.54,wordex2_1.png
9,2,79,1,4,4,1,1292.09,nonwin2_4.png
9,2,80,2,2,2,1,1265.66,nonwex11.png
10,1,1,1,4,4,1,705.21,wordex4.png
10,2,2,1,4,4,1,918.72,nonwin9.png
10,2,3,2,2,2,1,1108.36,nonwin2_6.png
10,1,4,1,3,3,1,1185.91,wordin7.png
10,2,5,2,4,4,1,815.45,nonwin6.png
10,2,6,2,3,3,1,997.01,nonwin2_9.png
10,2,7,1,2,2,1,1522.57,nonwex5.png
10,1,8,1,3,3,1,1200.08,wordin4.png
10,2,9,2,1,1,1,781.67,nonwin2_12.png
10,2,10,2,1,1,1,1339.21,nonwex2_4.png
10,2,11,1,2,2,1,928.67,nonwin5.png
10,1,12,2,1,1,1,1014.32,wordex12.png
10,1,13,2,3,3,1,931.87,wordex2_4.png
10,2,14,1,1,1,1,921.39,nonwex2_1.png
10,2,15,2,2,2,1,734.97,nonwex2_10.png
10,2,16,1,3,3,1,1068.54,nonwin12.png
10,1,17,1,2,2,1,1650.09,wordin2_4.png
10,2,18,2,4,4,1,1071.65,nonwin2_1.png
10,1,19,1,3,3,1,1309.19,wordin2_12.png
10,2,20,1,3,3,1,1458.71,nonwex2_7.png
10,1,21,1,3,3,1,1016.28,wordex8.png
10,2,22,1,1,1,1,1069.81,nonwex8.png
10,1,23,1,4,4,1,1123.4,wordin2_3.png
10,1,24,1,4,4,1,768.92,wordex2_12.png
10,2,25,1,2,2,1,782.5,nonwex2.png
10,2,26,2,4,4,1,988.06,nonwex3.png
10,1,27,2,2,2,1,689.62,wordin11.png
10,1,28,1,1,1,1,735.15,wordex2_1.png
10,1,29,2,4,4,1,924.73,wordin10.png
10,1,30,2,3,3,1,1650.28,wordex6.png
10,1,31,2,1,1,1,1263.82,wordin2.png
10,1,32,2,1,1,1,1101.34,wordin2_2.png
10,1,33,1,4,4,1,1114.93,wordin2_6.png
10,2,34,2,1,1,1,1024.49,nonwin2_5.png
10,2,35,2,2,2,1,1230,nonwex2_12.png
10,1,36,1,2,2,1,739.5,wordex2_8.png
10,2,37,2,3,3,1,1217.15,nonwin2_3.png
10,1,38,1,2,2,1,918.68,wordin6.png
10,1,39,2,2,2,1,644.26,wordex2_10.png
10,2,40,2,2,2,1,1161.82,nonwex2_2.png
10,2,41,1,3,3,1,1039.35,nonwin2_8.png
10,2,42,1,4,4,1,1052.91,nonwex2_3.png
10,1,43,2,1,1,1,946.56,wordin8.png
10,2,44,2,4,4,1,952,nonwex9.png
10,1,45,2,3,3,1,1069.54,wordex2_9.png
10,2,46,1,4,4,1,971.09,nonwin2_2.png
10,2,47,2,4,4,1,1040.69,nonwex2_9.png
10,2,48,1,2,2,1,1174.23,nonwin2_10.png
10,2,49,1,1,1,1,827.76,nonwex10.png
10,2,50,1,3,3,1,1057.33,nonwex2_8.png
10,1,51,2,4,4,1,1422.86,wordex2.png
10,1,52,2,3,3,1,1492.44,wordex2_6.png
10,1,53,2,4,4,1,762,wordin3.png
10,1,54,1,2,2,1,767.52,wordex7.png
10,2,55,2,2,2,1,1213.06,nonwex11.png
10,2,56,1,4,4,1,994.62,nonwex4.png
10,2,57,1,1,1,1,848.17,nonwex2_11.png
10,1,58,2,2,2,1,1405.65,wordin12.png
10,1,59,1,1,1,1,651.21,wordin5.png
10,1,60,1,3,3,1,1112.86,wordin9.png
10,1,61,1,2,2,1,654.46,wordex2_7.png
10,2,62,2,1,1,1,627.97,nonwex6.png
10,1,63,2,4,4,1,865.52,wordin2_11.png
10,1,64,1,1,1,1,959.08,wordin2_7.png
10,1,65,1,4,4,1,1012.6,wordex1.png
10,1,66,1,1,1,1,994.15,wordex9.png
10,1,67,2,4,4,1,823.7,wordin2_8.png
10,2,68,1,3,3,1,1053.25,nonwin10.png
10,2,69,1,2,2,1,634.8,nonwin2_7.png
10,2,70,2,1,1,1,1216.36,nonwin4.png
10,1,71,2,2,2,1,1517.92,wordex2_2.png
10,2,72,2,3,3,1,1531.47,nonwin11.png
10,1,73,2,2,2,1,1873.04,wordin2_1.png
10,2,74,1,1,1,1,1158.57,nonwin7.png
10,2,75,2,3,3,1,1108.16,nonwin2_4.png
10,2,76,1,4,4,1,969.71,nonwin8.png
10,2,77,2,3,3,1,943.21,nonwex2_6.png
10,1,78,2,1,1,1,1516.82,wordex2_3.png
10,1,79,2,3,3,1,682.37,wordin2_5.png
10,1,80,1,1,1,1,991.92,wordex10.png
11,1,1,2,2,2,1,627.58,wordin5.png
11,2,2,2,2,2,1,457.2,nonwex5.png
11,1,3,2,1,1,1,494.7,wordin2_12.png
11,1,4,1,4,4,1,1020.26,wordex9.png
11,1,5,1,4,4,1,617.75,wordin8.png
11,2,6,1,1,1,1,535.43,nonwin6.png
11,1,7,2,4,4,1,700.93,wordin6.png
11,2,8,1,2,2,1,657.08,nonwex2_12.png
11,1,9,2,4,4,1,622.64,wordin2_5.png
11,2,10,2,2,2,1,412.17,nonwin2_3.png
11,1,11,2,1,1,1,377.74,wordex2_6.png
11,2,12,1,4,4,1,583.28,nonwex12.png
11,1,13,1,2,2,1,444.83,wordex8.png
11,2,14,1,4,4,1,514.31,nonwin12.png
11,1,15,2,3,3,1,575.94,wordex4.png
11,2,16,2,3,3,1,621.49,nonwex2_10.png
11,2,17,2,1,1,1,563.05,nonwin2_11.png
11,2,18,1,1,1,1,488.6,nonwin1.png
11,2,19,2,4,4,1,574.15,nonwex9.png
11,2,20,2,2,2,1,507.7,nonwin2_7.png
11,1,21,2,4,4,1,673.26,wordex2_5.png
11,2,22,2,4,4,1,718.81,nonwex7.png
11,2,23,1,2,2,1,596.39,nonwex2_9.png
11,1,24,1,4,4,1,841.92,wordex2_8.png
11,1,25,1,1,1,1,783.47,wordex10.png
11,1,26,2,3,3,1,693.03,wordex2_10.png
11,1,27,1,3,3,1,746.57,wordex2_11.png
11,2,28,2,3,3,1,760.13,nonwin2_5.png
11,2,29,1,3,3,1,957.68,nonwin7.png
11,2,30,1,2,2,1,811.23,nonwin11.png
11,2,31,2,4,4,1,736.79,nonwex10.png
11,1,32,1,4,4,1,830.34,wordex2_7.png
11,1,33,1,1,1,1,587.9,wordin2_8.png
11,1,34,1,2,2,1,697.45,wordin1.png
11,1,35,1,3,3,1,558.99,wordex5.png
11,1,36,2,4,4,1,612.55,wordin3.png
11,2,37,2,1,1,1,602.1,nonwin2.png
11,2,38,1,4,4,1,1111.66,nonwex2_4.png
11,2,39,2,3,3,1,1077.21,nonwex2.png
11,2,40,1,2,2,1,698.76,nonwex11.png
11,2,41,2,4,4,1,704.32,nonwex4.png
11,1,42,1,1,1,1,685.86,wordin2_10.png
11,1,43,2,1,1,1,755.42,wordin2_7.png
11,2,44,2,1,1,1,617,nonwin2_6.png
11,1,45,2,4,4,1,718.52,wordin12.png
11,1,46,1,4,4,1,636.11,wordex2_9.png
11,2,47,1,3,3,1,1113.64,nonwin8.png
11,1,48,2,2,2,1,1175.2,wordex2_1.png
11,1,49,2,2,2,1,836.76,wordin7.png
11,1,50,2,3,3,1,946.3,wordin9.png
11,2,51,1,2,2,1,1175.84,nonwin3.png
11,1,52,1,3,3,1,773.39,wordex11.png
11,2,53,1,1,1,1,770.99,nonwin9.png
11,1,54,1,2,2,1,608.51,wordex12.png
11,2,55,1,1,1,1,798.05,nonwex2_6.png
11,2,56,2,1,1,1,675.62,nonwex1.png
11,2,57,2,4,4,1,609.15,nonwex8.png
11,2,58,2,1,1,1,702.71,nonwin2_10.png
11,2,59,1,4,4,1,732.27,nonwex6.png
11,2,60,2,3,3,1,681.82,nonwin5.png
11,1,61,1,1,1,1,591.37,wordin2_3.png
11,2,62,2,3,3,1,668.95,nonwex2_11.png
11,2,63,1,1,1,1,898.48,nonwex2_5.png
11,2,64,1,3,3,1,1280.04,nonwex2_1.png
11,1,65,1,2,2,1,565.6,wordin2_9.png
11,2,66,2,2,2,1,643.14,nonwex2_8.png
11,1,67,2,2,2,1,656.72,wordin2.png
11,2,68,1,4,4,1,590.24,nonwin2_2.png
11,2,69,1,3,3,1,907.8,nonwex2_3.png
11,1,70,2,3,3,1,673.35,wordin4.png
11,1,71,2,1,1,1,822.91,wordex1.png
11,1,72,1,3,3,1,676.46,wordin2_11.png
11,1,73,1,1,1,1,698.01,wordin2_4.png
11,2,74,1,3,3,1,743.56,nonwin2_4.png
11,1,75,1,3,3,1,517.12,wordex7.png
11,1,76,1,2,2,1,746.67,wordex2.png
11,1,77,2,2,2,1,528.21,wordin11.png
11,1,78,2,3,3,1,685.78,wordin2_1.png
11,1,79,2,1,1,1,555.33,wordex6.png
11,2,80,2,2,2,1,608.9,nonwin4.png
12,2,1,1,2,2,1,596.66,nonwin5.png
12,1,2,2,2,2,1,938.17,wordin5.png
12,1,3,1,2,2,1,647.7,wordex2_1.png
12,2,4,2,4,4,1,1093.28,nonwin2_9.png
12,1,5,1,2,2,1,1578.8,wordin2_6.png
12,1,6,1,1,1,1,760.36,wordin7.png
12,2,7,2,3,3,1,1773.92,nonwex12.png
12,1,8,2,4,4,1,835.46,wordex2_6.png
12,2,9,1,4,4,1,873.02,nonwin11.png
12,1,10,1,4,4,1,582.57,wordex2.png
12,1,11,1,3,3,1,732.13,wordex4.png
12,1,12,1,4,4,1,1161.7,wordin2_12.png
12,2,13,1,3,3,1,2103.24,nonwex2_3.png
12,1,14,2,1,1,1,1524.8,wordex10.png
12,2,15,2,2,2,1,1730.34,nonwin2_11.png
12,1,16,1,3,3,1,2015.88,wordin4.png
12,2,17,1,3,3,1,1101.45,nonwin4.png
12,2,18,2,1,1,1,2091,nonwin8.png
12,1,19,1,1,1,1,1056.59,wordin1.png
12,1,20,1,1,1,1,1390.11,wordin2_3.png
12,1,21,1,4,4,1,587.68,wordin9.png
12,2,22,2,4,4,1,1569.23,nonwin2_3.png
12,1,23,1,3,3,1,1782.77,wordin12.png
12,1,24,1,1,1,1,1956.32,wordex2_10.png
12,2,25,1,3,3,1,2049.96,nonwin6.png
12,2,26,1,2,2,1,2247.42,nonwin2_10.png
12,2,27,1,1,1,1,2228.97,nonwin9.png
12,2,28,2,1,1,1,1970.42,nonwin2_5.png
12,2,29,2,2,2,1,2288.08,nonwex10.png
12,1,30,2,1,1,1,2037.62,wordex7.png
12,2,31,2,2,2,1,2163.18,nonwex2_2.png
12,2,32,2,1,1,1,2960.73,nonwex2.png
12,1,33,2,3,3,1,3030.3,wordex2_7.png
12,1,34,2,1,1,1,2135.64,wordex12.png
12,2,35,1,1,1,1,2469.2,nonwin2.png
12,1,36,1,2,2,1,2322.76,wordex2_5.png
12,2,37,1,3,3,1,1408.31,nonwex2_9.png
12,2,38,2,3,3,1,2461.87,nonwex2_6.png
12,2,39,2,4,4,1,3259.38,nonwex2_12.png
12,1,40,2,3,3,1,1632.97,wordin2_5.png
12,1,41,1,4,4,1,830.48,wordin2_4.png
12,1,42,1,3,3,1,1212.07,wordin2.png
12,2,43,2,3,3,1,1185.53,nonwex2_5.png
12,2,44,1,1,1,1,1639.19,nonwin2_7.png
12,2,45,1,2,2,1,1300.72,nonwex2_4.png
12,2,46,2,3,3,1,714.28,nonwex2_10.png
12,2,47,2,2,2,1,2735.84,nonwex11.png
12,1,48,1,1,1,1,2205.4,wordex2_3.png
12,2,49,2,1,1,1,3002.94,nonwex2_11.png
12,1,50,1,2,2,1,1032.53,wordex2_8.png
12,2,51,1,1,1,1,4102.06,nonwin2_8.png
12,1,52,1,2,2,1,1419.56,wordin6.png
12,1,53,2,1,1,1,1137.16,wordex2_12.png
12,2,54,1,1,1,1,1638.71,nonwin2_1.png
12,1,55,2,2,2,1,1420.27,wordex2_11.png
12,1,56,2,4,4,1,801.81,wordin8.png
12,1,57,2,4,4,1,791.37,wordin2_10.png
12,1,58,2,4,4,1,2020.91,wordin10.png
12,2,59,1,4,4,1,1514.47,nonwex2_7.png
12,2,60,2,4,4,1,2656.01,nonwex9.png
12,1,61,2,3,3,1,1213.57,wordex2_4.png
12,1,62,2,1,1,1,1475.01,wordex1.png
12,2,63,1,2,2,1,1720.68,nonwex5.png
12,1,64,2,4,4,1,958.24,wordin2_11.png
12,2,65,2,4,4,1,3579.8,nonwin7.png
12,2,66,2,3,3,1,2593.35,nonwex1.png
12,2,67,2,2,2,1,806.89,nonwex4.png
12,1,68,2,2,2,1,2148.44,wordin2_7.png
12,2,69,1,2,2,1,2530,nonwex3.png
12,1,70,2,3,3,1,2327.55,wordin2_8.png
12,2,71,1,4,4,1,2445.12,nonwin2_2.png
12,2,72,1,3,3,1,1842.66,nonwex2_8.png
12,2,73,1,4,4,1,3072.21,nonwex2_1.png
12,1,74,2,3,3,1,1253.77,wordin2_9.png
12,2,75,2,1,1,1,3035.42,nonwex7.png
12,1,76,2,2,2,1,2032.87,wordex6.png
12,1,77,2,2,2,1,886.42,wordin2_2.png
12,2,78,1,4,4,1,803.99,nonwin10.png
12,1,79,1,3,3,1,1857.57,wordex3.png
12,1,80,1,4,4,1,1271.08,wordex2_9.png
13,1,1,2,3,3,1,651.86,wordex6.png
13,2,2,2,4,4,1,713.37,nonwex2_7.png
13,2,3,1,2,2,1,1278.93,nonwex2_12.png
13,2,4,2,1,1,1,1140.49,nonwin2_10.png
13,2,5,1,4,4,1,1210.02,nonwin11.png
13,2,6,2,2,2,1,1511.57,nonwin2.png
13,2,7,1,3,3,1,1173.14,nonwex4.png
13,2,8,1,2,2,1,1482.68,nonwin2_9.png
13,1,9,2,4,4,1,1416.23,wordin2_5.png
13,2,10,2,4,4,1,1333.79,nonwex2_3.png
13,1,11,2,2,2,1,1643.34,wordin4.png
13,2,12,1,1,1,1,1248.89,nonwex2_6.png
13,2,13,2,3,3,1,862.45,nonwex7.png
13,1,14,1,2,2,1,836,wordin5.png
13,1,15,1,2,2,1,745.55,wordin8.png
13,2,16,1,1,1,1,1359.1,nonwin2_11.png
13,1,17,1,3,3,1,844.67,wordex1.png
13,2,18,1,4,4,1,714.2,nonwex5.png
13,1,19,1,1,1,1,1439.77,wordex2_4.png
13,1,20,2,3,3,1,461.27,wordin2.png
13,1,21,1,1,1,1,922.86,wordex4.png
13,2,22,2,3,3,1,816.43,nonwex2_11.png
13,1,23,2,3,3,1,726.02,wordex2_3.png
13,1,24,2,4,4,1,795.5,wordin2_8.png
13,2,25,2,2,2,1,537.09,nonwex6.png
13,2,26,2,2,2,1,606.63,nonwex8.png
13,1,27,2,1,1,1,940.18,wordin7.png
13,2,28,1,2,2,1,737.74,nonwex2_8.png
13,2,29,1,3,3,1,743.29,nonwin2_3.png
13,2,30,2,1,1,1,732.84,nonwex11.png
13,1,31,1,3,3,1,498.41,wordex2_1.png
13,1,32,1,3,3,1,487.96,wordin2_4.png
13,1,33,2,4,4,1,637.5,wordex8.png
13,1,34,2,2,2,1,1147.06,wordin2_3.png
13,1,35,2,1,1,1,1072.61,wordex12.png
13,1,36,2,3,3,1,1014.17,wordin1.png
13,2,37,1,1,1,1,1011.71,nonwin5.png
13,2,38,1,4,4,1,1097.27,nonwin2_5.png
13,2,39,2,3,3,1,910.74,nonwin2_1.png
13,1,40,1,4,4,1,564.37,wordex7.png
13,1,41,2,2,2,1,745.93,wordex2_6.png
13,1,42,1,4,4,1,967.48,wordin2_6.png
13,1,43,1,1,1,1,917.03,wordin3.png
13,2,44,2,1,1,1,786.59,nonwin2_7.png
13,2,45,2,4,4,1,664.17,nonwex2_5.png
13,1,46,1,3,3,1,1149.7,wordex2_9.png
13,1,47,1,4,4,1,643.25,wordin2_9.png
13,2,48,1,2,2,1,544.8,nonwex2_2.png
13,2,49,1,3,3,1,494.38,nonwex1.png
13,2,50,1,1,1,1,723.9,nonwin2_6.png
13,1,51,1,1,1,1,705.45,wordin11.png
13,1,52,1,4,4,1,679,wordin10.png
13,1,53,2,4,4,1,580.56,wordin2_1.png
13,1,54,1,3,3,1,546.13,wordex2_8.png
13,2,55,1,1,1,1,735.68,nonwin6.png
13,1,56,2,1,1,1,597.22,wordin2_12.png
13,1,57,2,1,1,1,594.81,wordex2_2.png
13,2,58,2,2,2,1,648.36,nonwex2_1.png
13,1,59,1,2,2,1,421.88,wordex9.png
13,1,60,2,2,2,1,347.4,wordin2_2.png
13,2,61,2,3,3,1,872.98,nonwin4.png
13,2,62,2,3,3,1,638.53,nonwin2_4.png
13,1,63,1,1,1,1,812.09,wordex2_11.png
13,1,64,1,2,2,1,449.68,wordin12.png
13,2,65,1,4,4,1,727.2,nonwin2_2.png
13,2,66,2,4,4,1,716.76,nonwex2_9.png
13,1,67,2,2,2,1,682.31,wordex11.png
13,2,68,2,1,1,1,735.86,nonwex2.png
13,2,69,1,3,3,1,637.44,nonwin10.png
13,2,70,1,3,3,1,698.96,nonwin2_8.png
13,2,71,2,1,1,1,480.52,nonwin1.png
13,1,72,2,4,4,1,686.06,wordin2_10.png
13,2,73,1,4,4,1,699.65,nonwex3.png
13,1,74,2,3,3,1,625.18,wordex2_12.png
13,1,75,1,2,2,1,558.75,wordex2_10.png
13,2,76,1,2,2,1,1356.28,nonwin7.png
13,1,77,2,1,1,1,1009.83,wordex2_7.png
13,1,78,1,4,4,1,839.39,wordin6.png
13,2,79,2,2,2,1,372.89,nonwex9.png
13,2,80,2,4,4,1,690.49,nonwin3.png
14,2,1,1,1,1,1,1042.52,nonwin2_9.png
14,2,2,2,3,3,1,1704.07,nonwex2_6.png
14,2,3,2,2,2,1,2109.64,nonwex2_12.png
14,1,4,1,1,1,1,2011.17,wordex6.png
14,1,5,1,4,4,1,1784.73,wordex2.png
14,1,6,1,2,2,1,1302.29,wordin2_12.png
14,1,7,2,4,4,1,1835.84,wordex2_12.png
14,1,8,2,1,1,1,1649.3,wordin2_1.png
14,1,9,1,1,1,1,1270.94,wordin2_7.png
14,2,10,2,1,1,1,1372.49,nonwin10.png
14,2,11,2,2,2,1,1370.05,nonwin2_6.png
14,2,12,1,4,4,1,1135.5,nonwin9.png
14,1,13,2,3,3,1,1373.15,wordin2_3.png
14,2,14,2,3,3,1,1498.69,nonwex7.png
14,1,15,2,2,2,1,1136.26,wordin12.png
14,1,16,1,3,3,1,1405.81,wordex2_6.png
14,1,17,2,4,4,1,1059.36,wordex3.png
14,2,18,1,2,2,1,1272.92,nonwin2_11.png
14,2,19,2,3,3,1,1510.46,nonwin1.png
14,1,20,1,3,3,1,1444.02,wordex2_11.png
14,1,21,2,4,4,1,1641.57,wordin2_6.png
14,1,22,2,2,2,1,1215.12,wordex2_7.png
14,1,23,2,4,4,1,1412.67,wordin5.png
14,1,24,2,3,3,1,1618.23,wordin10.png
14,2,25,2,1,1,1,1591.78,nonwin12.png
14,2,26,1,3,3,1,1205.33,nonwin2_5.png
14,2,27,2,4,4,1,986.9,nonwex11.png
14,1,28,2,1,1,1,1248.46,wordex2_1.png
14,1,29,1,3,3,1,1446,wordex2_5.png
14,2,30,1,2,2,1,1203.55,nonwex2_8.png
14,1,31,1,4,4,1,1465.1,wordex9.png
14,1,32,1,2,2,1,1454.65,wordin2_9.png
14,2,33,2,4,4,1,1428.22,nonwex2_2.png
14,1,34,1,1,1,1,1457.75,wordin2_10.png
14,2,35,2,4,4,1,1551.31,nonwex2.png
14,1,36,2,4,4,1,1796.86,wordin2_5.png
14,2,37,1,3,3,1,1306.45,nonwex2_7.png
14,1,38,1,2,2,1,1263.97,wordin2_4.png
14,1,39,2,2,2,1,1341.53,wordin1.png
14,1,40,2,1,1,1,1619.06,wordex2_10.png
14,2,41,1,2,2,1,1664.63,nonwin6.png
14,2,42,1,1,1,1,1662.18,nonwex5.png
14,1,43,2,1,1,1,1299.74,wordex4.png
14,2,44,1,1,1,1,1393.28,nonwex1.png
14,1,45,2,3,3,1,1478.84,wordex2_8.png
14,1,46,2,3,3,1,924.43,wordex11.png
14,1,47,1,4,4,1,1329.95,wordin8.png
14,2,48,1,4,4,1,1511.51,nonwex2_11.png
14,2,49,2,1,1,1,1077.06,nonwin3.png
14,1,50,1,3,3,1,1394.59,wordex1.png
14,2,51,1,3,3,1,1424.14,nonwex2_5.png
14,2,52,2,3,3,1,1445.71,nonwex2_4.png
14,2,53,1,4,4,1,1387.27,nonwin8.png
14,2,54,1,2,2,1,1544.82,nonwin4.png
14,1,55,1,2,2,1,1126.37,wordex2_2.png
14,1,56,2,1,1,1,1587.92,wordin9.png
14,1,57,1,1,1,1,1521.47,wordin3.png
14,2,58,1,1,1,1,1415.15,nonwin2_7.png
14,1,59,2,2,2,1,1604.6,wordex7.png
14,2,60,1,3,3,1,1666.14,nonwex9.png
14,2,61,2,4,4,1,1543.68,nonwin5.png
14,2,62,1,4,4,1,1541.23,nonwin2.png
14,2,63,2,2,2,1,2066.79,nonwex2_10.png
14,2,64,1,4,4,1,1368.35,nonwex12.png
14,2,65,2,3,3,1,1605.89,nonwin11.png
14,2,66,1,1,1,1,1467.45,nonwex3.png
14,1,67,1,1,1,1,1249.01,wordin2_2.png
14,1,68,2,2,2,1,1190.56,wordin4.png
14,1,69,1,4,4,1,1164.11,wordin2.png
14,2,70,1,2,2,1,1537.67,nonwin2_3.png
14,2,71,2,1,1,1,1183.22,nonwin2_2.png
14,1,72,1,4,4,1,1108.74,wordin6.png
14,2,73,1,3,3,1,1386.32,nonwex2_1.png
14,2,74,2,2,2,1,1511.88,nonwex8.png
14,1,75,2,3,3,1,1629.43,wordin2_8.png
14,1,76,1,3,3,1,1586.98,wordex12.png
14,2,77,2,1,1,1,1080.53,nonwin2_4.png
14,2,78,2,4,4,1,1430.09,nonwex4.png
14,1,79,1,2,2,1,1587.64,wordex10.png
14,2,80,2,2,2,1,1289.2,nonwex2_3.png
15,1,1,2,3,3,1,533.22,wordin5.png
15,2,2,2,2,2,1,1962.78,nonwex1.png
15,1,3,2,2,2,1,1304.33,wordin2.png
15,1,4,2,2,2,1,917.88,wordin7.png
15,2,5,1,4,4,1,1059.5,nonwex2_9.png
15,1,6,2,4,4,1,864.99,wordex2_6.png
15,1,7,1,3,3,1,1302.48,wordin2_8.png
15,2,8,1,3,3,1,1140.15,nonwin2_7.png
15,2,9,1,3,3,1,1473.65,nonwin12.png
15,2,10,1,4,4,1,4071.21,nonwex2_4.png
15,2,11,2,2,2,1,2148.76,nonwex2_2.png
15,1,12,1,4,4,1,1234.32,wordex9.png
15,1,13,1,2,2,1,911.88,wordex2_5.png
15,2,14,2,2,2,1,2205.4,nonwin2_10.png
15,2,15,1,3,3,1,1058.98,nonwex3.png
15,1,16,1,2,2,1,1232.54,wordex6.png
15,2,17,2,1,1,1,1774.08,nonwin2_8.png
15,2,18,1,2,2,1,907.64,nonwin7.png
15,2,19,1,3,3,1,1545.14,nonwin6.png
15,1,20,1,1,1,1,1462.78,wordex8.png
15,1,21,2,1,1,1,1028.28,wordin8.png
15,1,22,2,4,4,1,1985.76,wordin2_6.png
15,2,23,2,3,3,1,839.4,nonwex6.png
15,2,24,2,3,3,1,1964.96,nonwin5.png
15,2,25,1,1,1,1,1378.52,nonwex9.png
15,2,26,1,2,2,1,1808.02,nonwex2_7.png
15,2,27,1,1,1,1,1805.62,nonwex2_5.png
15,2,28,2,4,4,1,2451.18,nonwex2_1.png
15,2,29,2,1,1,1,1992.7,nonwin1.png
15,1,30,2,3,3,1,1918.26,wordin2_7.png
15,2,31,2,3,3,1,947.81,nonwex7.png
15,1,32,1,2,2,1,1105.37,wordex3.png
15,1,33,2,4,4,1,1702.91,wordin11.png
15,1,34,1,3,3,1,2692.47,wordin2_3.png
15,1,35,1,3,3,1,1065.99,wordex11.png
15,1,36,2,2,2,1,1607.62,wordin2_11.png
15,1,37,1,4,4,1,2037.24,wordin2_10.png
15,1,38,2,2,2,1,1498.68,wordin2_2.png
15,2,39,1,1,1,1,1464.24,nonwin8.png
15,1,40,2,1,1,1,1029.81,wordin6.png
15,1,41,2,3,3,1,1187.33,wordin1.png
15,1,42,2,1,1,1,1600.89,wordin3.png
15,1,43,1,1,1,1,2646.44,wordin2_12.png
15,2,44,1,1,1,1,1092.01,nonwin2.png
15,2,45,2,4,4,1,2201.55,nonwex8.png
15,2,46,1,4,4,1,1895.11,nonwex2_8.png
15,1,47,1,2,2,1,2028.67,wordex2_7.png
15,2,48,2,1,1,1,1226.18,nonwex2_12.png
15,1,49,1,1,1,1,1495.75,wordex2_3.png
15,2,50,2,4,4,1,1061.33,nonwin2_3.png
15,1,51,1,1,1,1,1474.87,wordex2_12.png
15,2,52,1,1,1,1,1320.41,nonwin2_2.png
15,2,53,2,1,1,1,1437.98,nonwex2.png
15,2,54,2,3,3,1,1467.54,nonwin2_12.png
15,2,55,2,1,1,1,2249.08,nonwin2_4.png
15,1,56,2,4,4,1,870.6,wordin2_1.png
15,2,57,2,2,2,1,1492.19,nonwin4.png
15,2,58,1,4,4,1,1529.66,nonwin3.png
15,2,59,1,2,2,1,2183.19,nonwex11.png
15,1,60,1,4,4,1,1404.81,wordex2_8.png
15,2,61,1,4,4,1,946.4,nonwin2_5.png
15,1,62,1,4,4,1,975.95,wordex2_1.png
15,2,63,2,4,4,1,941.5,nonwin11.png
15,2,64,2,3,3,1,1459.06,nonwex4.png
15,1,65,2,2,2,1,2576.61,wordex2_4.png
15,1,66,2,4,4,1,990.16,wordin2_4.png
15,1,67,2,3,3,1,1283.72,wordex5.png
15,1,68,2,1,1,1,1977.26,wordin10.png
15,2,69,1,2,2,1,2374.83,nonwin2_6.png
15,1,70,1,3,3,1,1588.38,wordex2_11.png
15,2,71,1,2,2,1,1705.93,nonwex12.png
15,2,72,2,4,4,1,1695.48,nonwin2_11.png
15,1,73,1,2,2,1,1757.04,wordin4.png
15,1,74,1,3,3,1,1706.58,wordex12.png
15,2,75,2,2,2,1,1536.14,nonwin2_9.png
15,2,76,1,3,3,1,933.74,nonwin9.png
15,1,77,1,4,4,1,1483.24,wordin2_9.png
15,1,78,2,3,3,1,864.8,wordex7.png
15,1,79,1,1,1,1,1014.35,wordex2_9.png
15,1,80,2,1,1,1,1027.9,wordin9.png
16,1,1,2,1,1,1,499.31,wordex2_1.png
16,2,2,2,3,3,1,624.9,nonwex12.png
16,2,3,1,2,2,1,678.48,nonwin10.png
16,2,4,2,4,4,1,564.03,nonwex2.png
16,2,5,2,4,4,1,801.54,nonwin2_2.png
16,2,6,1,3,3,1,703.16,nonwin3.png
16,2,7,2,2,2,1,596.69,nonwex3.png
16,1,8,2,1,1,1,514.14,wordex6.png
16,1,9,1,1,1,1,591.79,wordin2_10.png
16,1,10,1,2,2,1,805.35,wordin2_5.png
16,2,11,1,3,3,1,762.91,nonwex2_7.png
16,1,12,1,4,4,1,1064.46,wordex12.png
16,2,13,2,2,2,1,1782.01,nonwin2_9.png
16,2,14,1,4,4,1,699.49,nonwex2_1.png
16,2,15,2,3,3,1,593.05,nonwex2_12.png
16,2,16,1,3,3,1,790.66,nonwin2_6.png
16,2,17,2,4,4,1,604.22,nonwex2_2.png
16,1,18,1,1,1,1,657.78,wordin1.png
16,2,19,1,2,2,1,743.27,nonwin2_5.png
16,1,20,2,2,2,1,1340.89,wordin9.png
16,1,21,2,2,2,1,1178.44,wordin2_8.png
16,2,22,1,1,1,1,647.99,nonwin12.png
16,2,23,1,2,2,1,549.54,nonwex1.png
16,1,24,1,2,2,1,587.08,wordin2_7.png
16,1,25,2,3,3,1,712.64,wordex2_9.png
16,1,26,1,3,3,1,662.25,wordin11.png
16,2,27,1,1,1,1,707.59,nonwex2_3.png
16,2,28,2,2,2,1,553.19,nonwin7.png
16,2,29,1,1,1,1,518.86,nonwex2_9.png
16,1,30,2,4,4,1,572.42,wordex2_5.png
16,2,31,2,1,1,1,569.9,nonwin2_10.png
16,1,32,2,3,3,1,647.52,wordex10.png
16,1,33,1,1,1,1,581,wordex5.png
16,1,34,2,3,3,1,874.59,wordin2.png
16,1,35,1,3,3,1,720.11,wordex4.png
16,2,36,2,3,3,1,797.66,nonwex8.png
16,1,37,1,4,4,1,571.28,wordex2_4.png
16,1,38,1,1,1,1,640.82,wordin10.png
16,2,39,2,2,2,1,734.45,nonwex9.png
16,1,40,1,3,3,1,883.91,wordin2_6.png
16,1,41,1,2,2,1,617.48,wordex2_11.png
16,2,42,2,1,1,1,567.04,nonwin4.png
16,2,43,1,1,1,1,612.59,nonwin2_7.png
16,1,44,2,1,1,1,738.16,wordin2_3.png
16,2,45,2,3,3,1,1103.71,nonwin5.png
16,1,46,2,1,1,1,749.27,wordex11.png
16,1,47,2,1,1,1,554.83,wordex2_2.png
16,1,48,1,4,4,1,736.36,wordex9.png
16,2,49,1,2,2,1,605.92,nonwex7.png
16,1,50,2,2,2,1,635.47,wordin7.png
16,1,51,1,4,4,1,561.04,wordin2_4.png
16,1,52,2,4,4,1,566.58,wordin2_1.png
16,1,53,2,3,3,1,980.13,wordex2_6.png
16,1,54,1,2,2,1,545.68,wordin2_2.png
16,1,55,2,2,2,1,631.23,wordex2.png
16,2,56,2,1,1,1,1388.77,nonwex2_11.png
16,1,57,2,3,3,1,714.34,wordex2_10.png
16,2,58,1,4,4,1,559.89,nonwex2_8.png
16,1,59,2,4,4,1,485.31,wordex7.png
16,2,60,2,2,2,1,595.01,nonwin2_12.png
16,2,61,1,4,4,1,544.55,nonwin8.png
16,1,62,1,4,4,1,502.1,wordin4.png
16,2,63,1,1,1,1,619.65,nonwin2_1.png
16,1,64,1,3,3,1,897.22,wordin12.png
16,1,65,1,3,3,1,830.78,wordin5.png
16,1,66,1,1,1,1,532.29,wordex2_7.png
16,2,67,2,1,1,1,1137.8,nonwex11.png
16,2,68,1,4,4,1,871.38,nonwex2_10.png
16,2,69,2,4,4,1,700.87,nonwin11.png
16,1,70,2,4,4,1,546.46,wordin2_9.png
16,2,71,1,2,2,1,504.08,nonwex10.png
16,1,72,1,2,2,1,541.63,wordex8.png
16,2,73,2,1,1,1,579.18,nonwin2_8.png
16,2,74,1,3,3,1,544.74,nonwex2_6.png
16,1,75,2,2,2,1,590.29,wordex3.png
16,2,76,2,3,3,1,739.84,nonwin1.png
16,2,77,1,4,4,1,585.35,nonwin2_3.png
16,2,78,2,4,4,1,1038.92,nonwex2_4.png
16,1,79,2,4,4,1,836.51,wordex2_8.png
16,2,80,1,3,3,1,610.07,nonwin6.png
17,2,1,1,1,1,1,1172.71,nonwex10.png
17,2,2,1,4,4,1,738.26,nonwex12.png
17,2,3,2,4,4,1,767.83,nonwin2_2.png
17,1,4,2,2,2,1,629.37,wordex2_1.png
17,1,5,2,2,2,1,682.91,wordin3.png
17,1,6,2,4,2,0,792.47,wordex9.png
17,1,7,1,1,1,1,1046.06,wordex2_2.png
17,1,8,1,2,2,1,963.59,wordin4.png
17,2,9,2,3,3,1,641.16,nonwex7.png
17,1,10,2,4,4,1,710.72,wordin11.png
17,2,11,1,1,1,1,852.24,nonwex2_6.png
17,1,12,1,4,4,1,993.82,wordex2_4.png
17,2,13,1,2,2,1,815.37,nonwex2_4.png
17,1,14,2,3,3,1,716.91,wordex8.png
17,1,15,1,1,1,1,626.56,wordex2_12.png
17,2,16,1,1,1,1,736.01,nonwex8.png
17,1,17,2,1,1,1,741.54,wordin7.png
17,1,18,2,2,2,1,867.1,wordex11.png
17,2,19,1,4,4,1,928.69,nonwin2_6.png
17,2,20,2,1,1,1,1038.21,nonwin4.png
17,2,21,1,4,4,1,755.79,nonwin11.png
17,1,22,2,1,1,1,665.33,wordex1.png
17,2,23,1,3,3,1,878.91,nonwex6.png
17,2,24,2,1,1,1,796.43,nonwin2.png
17,2,25,2,2,2,1,1081.98,nonwin1.png
17,2,26,1,3,3,1,983.57,nonwin3.png
17,2,27,1,1,1,1,877.08,nonwin7.png
17,2,28,1,3,3,1,1034.62,nonwex2_3.png
17,2,29,1,1,1,1,1064.2,nonwin5.png
17,2,30,2,4,4,1,765.76,nonwex1.png
17,1,31,2,4,4,1,683.3,wordin2_4.png
17,2,32,2,3,3,1,1528.86,nonwin2_9.png
17,1,33,2,1,1,1,694.44,wordin9.png
17,1,34,2,3,3,1,1243.96,wordex3.png
17,2,35,2,2,2,1,913.51,nonwin2_4.png
17,2,36,1,2,2,1,807.07,nonwin2_10.png
17,1,37,1,2,2,1,1076.64,wordin1.png
17,1,38,1,2,2,1,794.2,wordin2_6.png
17,2,39,1,2,2,1,807.76,nonwex2_12.png
17,2,40,2,3,3,1,1141.31,nonwin10.png
17,1,41,1,3,3,1,514.84,wordin8.png
17,2,42,2,4,4,1,1928.41,nonwex2_7.png
17,2,43,1,4,4,1,725.94,nonwex2_8.png
17,1,44,1,4,4,1,835.49,wordex5.png
17,2,45,2,1,1,1,1089.08,nonwex2_10.png
17,1,46,1,3,3,1,1126.6,wordex2_11.png
17,1,47,1,2,2,1,1684.18,wordin5.png
17,2,48,2,4,4,1,1017.72,nonwex2_1.png
17,1,49,1,4,4,1,671.28,wordex2_9.png
17,1,50,2,2,2,1,780.8,wordin12.png
17,2,51,2,2,2,1,842.35,nonwin8.png
17,2,52,1,3,3,1,903.9,nonwex2_11.png
17,1,53,1,2,2,1,565.46,wordin2_7.png
17,2,54,1,4,4,1,1203.02,nonwex9.png
17,1,55,2,4,4,1,744.6,wordin6.png
17,2,56,2,2,2,1,1358.13,nonwin2_1.png
17,1,57,1,1,1,1,1163.7,wordex12.png
17,2,58,1,3,3,1,1025.23,nonwin9.png
17,1,59,2,3,3,1,702.78,wordin10.png
17,1,60,1,4,4,1,980.33,wordin2_3.png
17,1,61,1,1,1,1,961.91,wordin2_8.png
17,1,62,2,1,1,1,647.44,wordex2_8.png
17,2,63,2,3,3,1,1205.02,nonwin2_7.png
17,2,64,2,4,4,1,970.54,nonwex3.png
17,2,65,2,2,2,1,1192.11,nonwex2.png
17,1,66,1,3,3,1,725.66,wordex4.png
17,2,67,1,2,2,1,947.23,nonwex2_9.png
17,2,68,1,2,2,1,568.75,nonwex4.png
17,1,69,2,3,3,1,686.31,wordin2_12.png
17,2,70,2,1,1,1,851.89,nonwin2_5.png
17,1,71,1,4,4,1,1193.42,wordex2_7.png
17,1,72,2,1,1,1,822.96,wordin2_9.png
17,1,73,2,3,3,1,1340.52,wordex2_6.png
17,2,74,2,1,1,1,1058.1,nonwex2_2.png
17,1,75,1,3,3,1,1287.63,wordin2_11.png
17,2,76,2,3,3,1,733.19,nonwin2_8.png
17,1,77,1,3,3,1,1090.75,wordin2_1.png
17,1,78,2,4,4,1,1264.32,wordex2_3.png
17,1,79,1,1,1,1,733.84,wordex2_5.png
17,1,80,2,2,2,1,1051.41,wordin2.png
18,2,1,1,2,0,0,0,nonwin4.png
18,2,2,1,3,2,0,27.23,nonwex2_9.png
18,1,3,1,4,4,1,2008.81,wordin2_10.png
18,1,4,2,4,4,1,1806.35,wordex2_1.png
18,1,5,2,1,1,1,3267.88,wordex3.png
18,1,6,1,3,3,1,2097.43,wordex1.png
18,2,7,1,1,1,1,2014.98,nonwex2_7.png
18,1,8,1,4,4,1,4108.56,wordex2_8.png
18,1,9,2,3,3,1,2490.08,wordin2_11.png
18,2,10,2,2,2,1,2807.65,nonwex5.png
18,1,11,1,3,3,1,3805.22,wordin9.png
18,1,12,1,2,2,1,3394.77,wordex11.png
18,1,13,2,1,1,1,2408.32,wordex2_4.png
18,2,14,2,4,4,1,3037.99,nonwex2_6.png
18,2,15,1,1,1,1,2667.41,nonwex2_4.png
18,1,16,2,2,4,0,2368.96,wordex10.png
18,1,17,1,4,0,0,0,wordin2_2.png
18,1,18,2,3,3,1,3372.1,wordex2_6.png
18,1,19,1,2,2,1,3097.61,wordex2_3.png
18,2,20,2,1,1,1,3191.16,nonwin2_7.png
18,2,21,1,3,3,1,1572.75,nonwex4.png
18,1,22,2,1,1,1,2842.27,wordin3.png
18,2,23,1,3,3,1,3399.83,nonwin7.png
18,1,24,1,2,0,0,0,wordex2_10.png
18,2,25,1,2,2,1,2546.92,nonwex2_3.png
18,2,26,2,3,3,1,2976.51,nonwin8.png
18,2,27,2,4,4,1,3358.04,nonwin5.png
18,2,28,2,4,4,1,3571.61,nonwin12.png
18,2,29,1,2,2,1,3041.05,nonwex2_11.png
18,1,30,1,1,0,0,0,wordex2.png
18,2,31,2,1,1,1,2740.28,nonwin2_3.png
18,2,32,1,4,4,1,4201.84,nonwex1.png
18,1,33,1,3,3,1,3271.38,wordin2_4.png
18,2,34,2,4,4,1,3388.93,nonwin2_8.png
18,1,35,2,2,2,1,3618.47,wordin2_12.png
18,1,36,2,4,4,1,4304.05,wordin2.png
18,1,37,1,4,4,1,3061.6,wordex12.png
18,2,38,1,1,1,1,2675.14,nonwin2_12.png
18,1,39,1,1,1,1,2768.71,wordin4.png
18,1,40,2,2,2,1,3742.26,wordex9.png
18,2,41,1,2,2,1,4171.81,nonwex9.png
18,1,42,1,4,4,1,3641.35,wordex4.png
18,1,43,1,1,1,1,3222.83,wordin8.png
18,1,44,2,3,3,1,2908.46,wordin11.png
18,1,45,2,1,1,1,2689.99,wordex8.png
18,1,46,1,1,1,1,2663.55,wordin5.png
18,2,47,2,2,2,1,2709.12,nonwin11.png
18,2,48,2,4,4,1,2210.69,nonwex10.png
18,2,49,1,4,4,1,3152.25,nonwin2_4.png
18,1,50,2,1,1,1,2469.79,wordin2_7.png
18,1,51,2,4,4,1,1803.35,wordex2_7.png
18,2,52,1,3,3,1,2016.9,nonwex2_1.png
18,2,53,1,1,1,1,2334.44,nonwex2_8.png
18,1,54,1,1,1,1,3668,wordex6.png
18,2,55,1,2,2,1,3257.53,nonwin2_1.png
18,2,56,1,4,4,1,2519.07,nonwex7.png
18,2,57,2,1,1,1,2444.65,nonwex2_2.png
18,1,58,2,3,3,1,3386.21,wordex2_11.png
18,1,59,1,3,3,1,1959.77,wordex7.png
18,1,60,2,2,2,1,3421.34,wordex2_5.png
18,1,61,2,3,3,1,3714.85,wordin12.png
18,2,62,2,3,3,1,4136.36,nonwex2_12.png
18,2,63,1,1,1,1,3437.94,nonwin2_6.png
18,2,64,2,2,2,1,4267.52,nonwin2.png
18,2,65,1,4,4,1,2809.07,nonwex6.png
18,2,66,2,1,1,1,1638.64,nonwin6.png
18,1,67,1,2,2,1,2332.18,wordex2_12.png
18,1,68,2,4,4,1,2249.74,wordin2_6.png
18,1,69,1,3,3,1,3423.16,wordex2_2.png
18,2,70,2,2,2,1,3644.82,nonwex12.png
18,2,71,1,4,4,1,4130.35,nonwin2_2.png
18,1,72,2,2,2,1,3703.94,wordex2_9.png
18,2,73,2,3,3,1,3197.48,nonwex11.png
18,2,74,1,3,3,1,2571.11,nonwex3.png
18,2,75,2,1,1,1,3752.61,nonwex2.png
18,1,76,1,2,2,1,2726.16,wordin10.png
18,2,77,2,3,3,1,3595.71,nonwin9.png
18,1,78,2,4,4,1,3089.22,wordin1.png
18,2,79,2,3,3,1,3286.82,nonwin2_5.png
18,2,80,2,2,2,1,4484.36,nonwex2_10.png
19,1,1,1,4,4,1,1668.04,wordex4.png
19,1,2,1,2,4,0,1.48,wordin2_11.png
19,1,3,1,1,1,1,703.12,wordex3.png
19,1,4,1,4,4,1,780.65,wordex2_7.png
19,2,5,2,4,4,1,1090.22,nonwin2_8.png
19,2,6,1,4,4,1,1663.77,nonwin7.png
19,1,7,1,4,4,1,3557.35,wordex2_4.png
19,2,8,2,2,2,1,650.87,nonwex1.png
19,2,9,2,1,1,1,664.43,nonwin12.png
19,1,10,2,2,2,1,390.01,wordin2_10.png
19,2,11,2,2,2,1,483.57,nonwex2_9.png
19,1,12,2,2,2,1,345.13,wordex10.png
19,2,13,2,2,2,1,358.65,nonwin2_10.png
19,2,14,1,4,4,1,516.2,nonwex2.png
19,1,15,2,1,1,1,697.76,wordex11.png
19,1,16,2,1,1,1,623.34,wordin1.png
19,1,17,2,2,2,1,1092.86,wordin8.png
19,2,18,2,3,3,1,682.42,nonwin2_7.png
19,2,19,2,4,4,1,663.96,nonwex5.png
19,2,20,2,1,1,1,501.52,nonwin5.png
19,2,21,1,1,1,1,355.07,nonwex2_11.png
19,2,22,1,2,2,1,360.62,nonwex2_7.png
19,1,23,1,1,1,1,646.17,wordex2_11.png
19,2,24,2,1,1,1,395.75,nonwin9.png
19,1,25,2,2,2,1,537.27,wordex2_1.png
19,2,26,1,1,1,1,654.8,nonwex9.png
19,1,27,2,3,3,1,652.38,wordin5.png
19,1,28,2,3,3,1,681.94,wordex12.png
19,2,29,1,4,4,1,471.49,nonwin2_12.png
19,2,30,1,4,4,1,485.02,nonwin2_4.png
19,1,31,1,4,4,1,450.61,wordex2.png
19,1,32,1,2,2,1,464.14,wordin11.png
19,2,33,2,3,3,1,445.71,nonwin2_6.png
19,1,34,1,2,2,1,427.29,wordin4.png
19,1,35,2,1,1,1,368.8,wordin9.png
19,1,36,1,3,3,1,470.36,wordin2_1.png
19,1,37,1,4,4,1,371.88,wordex6.png
19,2,38,1,2,2,1,425.45,nonwin11.png
19,2,39,2,1,1,1,1006.92,nonwex2_5.png
19,1,40,2,2,2,1,372.58,wordin2_3.png
19,2,41,1,2,2,1,810.12,nonwin3.png
19,2,42,1,4,4,1,439.68,nonwin4.png
19,1,43,2,1,1,1,461.24,wordin7.png
19,2,44,2,2,2,1,394.78,nonwex6.png
19,1,45,2,4,4,1,408.33,wordin2_6.png
19,1,46,1,1,1,1,349.89,wordex9.png
19,2,47,2,2,2,1,355.44,nonwex2_8.png
19,1,48,2,4,4,1,344.99,wordex2_9.png
19,1,49,2,3,3,1,542.56,wordin2_5.png
19,1,50,2,3,3,1,524.09,wordex2_5.png
19,1,51,1,2,2,1,337.65,wordex2_10.png
19,1,52,1,3,3,1,583.22,wordin6.png
19,1,53,1,1,1,1,380.77,wordex2_12.png
19,1,54,1,3,3,1,842.32,wordin2_8.png
19,1,55,1,3,3,1,415.88,wordex1.png
19,1,56,2,3,3,1,517.54,wordex5.png
19,2,57,1,3,3,1,394.98,nonwex2_2.png
19,1,58,2,4,4,1,776.56,wordin2_4.png
19,2,59,2,4,4,1,406.11,nonwex8.png
19,2,60,1,1,1,1,443.63,nonwex2_12.png
19,2,61,2,4,4,1,593.21,nonwin2_2.png
19,2,62,2,1,1,1,502.74,nonwex3.png
19,2,63,1,3,3,1,444.3,nonwex2_1.png
19,2,64,2,3,3,1,505.84,nonwin8.png
19,1,65,2,1,1,1,479.39,wordin2_2.png
19,2,66,2,4,4,1,308.95,nonwin1.png
19,1,67,1,1,1,1,634.45,wordin12.png
19,1,68,1,2,2,1,448.06,wordex2_8.png
19,2,69,1,1,1,1,453.63,nonwin2_11.png
19,2,70,1,2,2,1,499.16,nonwex2_3.png
19,2,71,1,3,3,1,568.72,nonwex4.png
19,1,72,1,3,3,1,494.19,wordin2_12.png
19,2,73,2,3,3,1,531.82,nonwin6.png
19,2,74,2,3,3,1,521.37,nonwin10.png
19,2,75,1,3,3,1,406.95,nonwin2.png
19,1,76,2,4,4,1,532.48,wordex2_3.png
19,2,77,1,1,1,1,554.04,nonwex2_4.png
19,2,78,1,2,2,1,487.59,nonwin2_1.png
19,1,79,2,4,4,1,485.14,wordex8.png
19,2,80,1,3,3,1,594.69,nonwex10.png
20,1,1,1,2,2,1,545.26,wordex3.png
20,1,2,2,2,2,1,814.84,wordin2_6.png
20,2,3,1,4,4,1,1580.44,nonwex2_9.png
20,2,4,1,2,2,1,1153.96,nonwex5.png
20,1,5,2,3,3,1,1183.49,wordin10.png
20,1,6,2,3,3,1,1589.05,wordin2_7.png
20,1,7,2,4,4,1,1410.57,wordin2_10.png
20,1,8,1,1,1,1,776.12,wordin12.png
20,2,9,2,3,3,1,1181.68,nonwex2_8.png
20,2,10,2,1,1,1,1571.23,nonwin11.png
20,2,11,2,3,3,1,1432.82,nonwex4.png
20,1,12,1,3,3,1,950.35,wordin6.png
20,1,13,2,4,4,1,1123.88,wordex2_6.png
20,1,14,2,2,2,1,889.42,wordex2_2.png
20,2,15,2,2,2,1,1647.01,nonwex2.png
20,1,16,1,2,2,1,732.54,wordin9.png
20,1,17,1,2,2,1,626.11,wordin11.png
20,2,18,2,4,4,1,1015.65,nonwin2_11.png
20,1,19,2,4,4,1,885.23,wordin8.png
20,1,20,2,1,1,1,706.77,wordin2_12.png
20,1,21,1,2,2,1,776.34,wordex2.png
20,1,22,2,2,2,1,917.86,wordex2_12.png
20,2,23,1,2,2,1,1355.44,nonwin6.png
20,2,24,1,1,1,1,648.96,nonwex6.png
20,1,25,2,1,1,1,966.52,wordex2_11.png
20,1,26,2,1,1,1,1556.07,wordex8.png
20,2,27,2,4,4,1,1121.64,nonwex12.png
20,1,28,1,3,3,1,1247.17,wordex2_5.png
20,2,29,2,3,3,1,756.73,nonwin2_9.png
20,1,30,2,1,1,1,626.19,wordex2_9.png
20,1,31,2,2,2,1,519.97,wordex6.png
20,1,32,2,3,3,1,653.4,wordin2_5.png
20,1,33,1,3,3,1,818.97,wordex4.png
20,2,34,1,4,4,1,1248.49,nonwex11.png
20,1,35,1,4,4,1,830.09,wordin2_4.png
20,1,36,2,3,3,1,1091.61,wordin2_1.png
20,2,37,2,2,2,1,1265.15,nonwin1.png
20,1,38,1,3,3,1,1590.74,wordin2_11.png
20,2,39,2,4,4,1,1004.29,nonwex1.png
20,1,40,1,4,4,1,1033.81,wordex9.png
20,2,41,2,4,4,1,1135.36,nonwin2_2.png
20,1,42,1,1,1,1,732.95,wordin7.png
20,2,43,1,4,4,1,850.46,nonwex2_5.png
20,1,44,2,1,1,1,1584.05,wordex2_3.png
20,1,45,1,4,4,1,893.66,wordin2.png
20,1,46,1,2,2,1,643.01,wordin1.png
20,1,47,2,4,4,1,808.68,wordex10.png
20,2,48,2,1,1,1,694.24,nonwin3.png
20,2,49,1,3,3,1,1195.79,nonwex2_11.png
20,2,50,2,1,1,1,1401.34,nonwin7.png
20,1,51,1,1,1,1,2254.9,wordex2_8.png
20,1,52,1,1,1,1,1044.45,wordin3.png
20,2,53,1,1,1,1,882.08,nonwin2_7.png
20,2,54,1,1,1,1,839.55,nonwin2_10.png
20,2,55,2,2,2,1,981.12,nonwin2_5.png
20,1,56,2,2,2,1,1474.69,wordin5.png
20,2,57,1,3,3,1,816.3,nonwex2_4.png
20,2,58,2,1,1,1,1109.72,nonwex2_2.png
20,2,59,1,2,2,1,955.36,nonwex10.png
20,2,60,1,4,4,1,1008.88,nonwin10.png
20,2,61,1,3,3,1,806.42,nonwin2.png
20,2,62,1,1,1,1,859.98,nonwex2_1.png
20,1,63,1,4,4,1,897.52,wordex12.png
20,2,64,2,1,1,1,607.08,nonwin4.png
20,1,65,2,4,4,1,972.65,wordin2_8.png
20,1,66,1,3,3,1,738.2,wordex2_4.png
20,2,67,1,2,2,1,1311.74,nonwex2_10.png
20,2,68,1,1,1,1,845.3,nonwex7.png
20,2,69,1,3,3,1,922.88,nonwex3.png
20,2,70,2,2,2,1,1160.42,nonwin2_8.png
20,2,71,2,3,3,1,910,nonwex2_3.png
20,2,72,2,2,2,1,963.51,nonwex9.png
20,1,73,1,4,4,1,841.14,wordex2_1.png
20,1,74,1,1,1,1,966.64,wordex5.png
20,2,75,1,3,3,1,1668.17,nonwex8.png
20,2,76,2,3,3,1,817.73,nonwin2_3.png
20,2,77,1,2,2,1,943.31,nonwin12.png
20,2,78,2,4,4,1,676.82,nonwin2_4.png
20,2,79,1,4,4,1,1066.38,nonwin8.png
20,1,80,2,3,3,1,695.94,wordex11.png
21,2,1,1,3,0,0,0,nonwex2_6.png
21,1,2,2,4,3,0,790.89,wordex2.png
21,1,3,2,1,1,1,1036.44,wordex6.png
21,1,4,2,3,3,1,1346,wordin2_4.png
21,2,5,1,1,1,1,1279.55,nonwin9.png
21,2,6,1,1,1,1,1133.12,nonwin2.png
21,2,7,2,4,4,1,1770.65,nonwex1.png
21,2,8,1,2,2,1,1288.21,nonwex2_8.png
21,1,9,2,4,4,1,1141.76,wordin2_12.png
21,1,10,2,1,1,1,1099.31,wordin4.png
21,2,11,1,3,3,1,1072.86,nonwin7.png
21,1,12,1,4,4,1,1022.42,wordin3.png
21,2,13,1,4,4,1,1275.97,nonwex5.png
21,2,14,2,2,2,1,1145.55,nonwin12.png
21,1,15,1,3,3,1,1023.07,wordin7.png
21,2,16,2,2,2,1,1300.62,nonwin2_1.png
21,2,17,2,3,3,1,1322.2,nonwin11.png
21,2,18,2,2,2,1,1367.72,nonwin2_5.png
21,1,19,1,1,1,1,1077.29,wordin8.png
21,2,20,2,1,1,1,866.88,nonwin2_10.png
21,2,21,1,1,1,1,688.4,nonwex3.png
21,2,22,1,3,3,1,1206.03,nonwex2.png
21,1,23,1,2,2,1,963.53,wordex12.png
21,1,24,2,3,3,1,953.05,wordin6.png
21,1,25,1,1,1,1,1030.6,wordex1.png
21,1,26,2,1,1,1,828.16,wordin2_5.png
21,1,27,1,2,2,1,689.7,wordin2_10.png
21,2,28,1,4,4,1,1239.26,nonwin2_8.png
21,1,29,2,4,4,1,660.81,wordex10.png
21,2,30,1,4,4,1,714.36,nonwin2_4.png
21,1,31,1,2,2,1,483.73,wordex8.png
21,2,32,2,1,1,1,1553.28,nonwin1.png
21,1,33,1,3,3,1,830.83,wordex2_6.png
21,1,34,2,3,3,1,956.38,wordin10.png
21,1,35,1,4,4,1,881.94,wordex2_10.png
21,1,36,2,2,2,1,503.5,wordin2_9.png
21,1,37,2,4,4,1,749.04,wordex2_12.png
21,2,38,1,2,2,1,362.59,nonwin2_11.png
21,1,39,1,1,1,1,1208.15,wordin11.png
21,2,40,1,4,4,1,797.68,nonwin3.png
21,1,41,2,2,2,1,571.25,wordin9.png
21,1,42,1,4,4,1,1064.81,wordex7.png
21,1,43,2,1,1,1,974.35,wordex2_11.png
21,2,44,1,2,2,1,1643.91,nonwex2_2.png
21,1,45,1,3,3,1,689.5,wordin2_1.png
21,1,46,1,4,4,1,679.03,wordin12.png
21,2,47,2,3,3,1,1356.46,nonwin2_7.png
21,2,48,1,2,2,1,922.12,nonwex2_4.png
21,1,49,1,1,1,1,839.68,wordex2_4.png
21,2,50,1,3,3,1,877.23,nonwin2_6.png
21,2,51,2,3,3,1,834.78,nonwex10.png
21,1,52,2,1,1,1,880.34,wordin2_8.png
21,2,53,2,1,1,1,1605.9,nonwex2_7.png
21,2,54,1,1,1,1,787.47,nonwin2_9.png
21,2,55,2,4,4,1,761.01,nonwex6.png
21,2,56,2,2,2,1,982.58,nonwin4.png
21,2,57,2,4,4,1,780.11,nonwin2_12.png
21,2,58,1,1,1,1,665.65,nonwex2_3.png
21,2,59,2,4,4,1,791.21,nonwex8.png
21,1,60,2,2,2,1,884.76,wordex2_7.png
21,1,61,2,3,3,1,538.35,wordex2_9.png
21,1,62,2,3,3,1,615.88,wordex5.png
21,2,63,1,2,2,1,701.41,nonwex4.png
21,1,64,1,2,2,1,875.01,wordin2_11.png
21,2,65,2,3,3,1,936.55,nonwin5.png
21,1,66,1,4,4,1,854.08,wordin1.png
21,2,67,1,3,3,1,811.6,nonwin2_2.png
21,2,68,2,1,1,1,713.18,nonwex12.png
21,1,69,1,2,2,1,942.77,wordex9.png
21,1,70,1,3,3,1,812.29,wordex2_8.png
21,2,71,2,3,3,1,865.84,nonwin8.png
21,2,72,2,2,2,1,791.44,nonwex11.png
21,2,73,1,4,4,1,780.95,nonwex2_10.png
21,2,74,2,4,4,1,1618.49,nonwin6.png
21,1,75,1,3,3,1,536.09,wordex3.png
21,2,76,2,1,1,1,869.61,nonwex9.png
21,1,77,2,2,2,1,1083.2,wordex11.png
21,1,78,2,2,2,1,992.8,wordin5.png
21,1,79,2,4,4,1,902.3,wordex4.png
21,1,80,1,1,1,1,915.82,wordin2_2.png
22,1,1,1,1,0,0,0,wordex2_12.png
22,2,2,2,3,1,0,3899.7,nonwin3.png
22,2,3,2,4,3,0,497.25,nonwex2_7.png
22,1,4,1,3,0,0,0,wordin2_1.png
22,2,5,1,2,2,1,3036.39,nonwin2_8.png
22,1,6,1,2,2,1,865.91,wordex2_3.png
22,2,7,2,1,1,1,983.45,nonwin2_7.png
22,2,8,2,4,4,1,2117.04,nonwin6.png
22,2,9,1,4,4,1,1794.6,nonwex11.png
22,1,10,2,3,3,1,1552.12,wordex2_2.png
22,1,11,1,1,1,1,1533.7,wordin9.png
22,2,12,1,2,2,1,1547.23,nonwin5.png
22,2,13,2,4,4,1,1744.81,nonwin2_4.png
22,2,14,1,1,1,1,1662.34,nonwex2_5.png
22,1,15,2,1,1,1,1355.89,wordex1.png
22,1,16,2,3,3,1,1641.44,wordin2_7.png
22,1,17,2,4,4,1,1167.03,wordex2_7.png
22,2,18,2,4,4,1,1276.63,nonwex2_4.png
22,1,19,1,3,3,1,1778.13,wordex11.png
22,2,20,1,1,1,1,1679.7,nonwex2_2.png
22,2,21,2,4,4,1,1885.21,nonwex7.png
22,1,22,2,2,2,1,1618.78,wordex2_5.png
22,2,23,2,2,2,1,1896.31,nonwin8.png
22,2,24,2,3,3,1,1997.89,nonwin2.png
22,1,25,2,4,4,1,2075.42,wordin2_3.png
22,2,26,1,1,1,1,1585,nonwex4.png
22,2,27,1,2,2,1,1046.53,nonwex10.png
22,2,28,1,2,2,1,1012.1,nonwex2_11.png
22,1,29,2,3,3,1,1385.66,wordin7.png
22,1,30,2,4,4,1,1735.22,wordex3.png
22,1,31,2,2,2,1,1444.74,wordex2_10.png
22,2,32,1,3,3,1,1345.92,nonwex2_8.png
22,2,33,1,4,4,1,1671.45,nonwin2_5.png
22,2,34,2,3,3,1,1645.03,nonwex2_1.png
22,1,35,1,3,3,1,1690.58,wordin5.png
22,2,36,2,2,2,1,1704.11,nonwex2_6.png
22,2,37,2,3,3,1,2245.7,nonwin2_11.png
22,1,38,2,2,2,1,1107.21,wordin12.png
22,2,39,2,2,2,1,1384.8,nonwex1.png
22,1,40,2,1,1,1,1414.36,wordex12.png
22,2,41,2,1,1,1,1931.87,nonwin2_2.png
22,1,42,2,1,1,1,1961.44,wordin2_9.png
22,2,43,2,1,1,1,1814.98,nonwex3.png
22,1,44,2,4,4,1,1724.54,wordin4.png
22,1,45,1,2,2,1,1906.12,wordin2_11.png
22,1,46,1,1,1,1,807.63,wordin2_8.png
22,1,47,1,2,2,1,965.21,wordex6.png
22,2,48,2,3,3,1,1274.78,nonwex8.png
22,1,49,2,1,1,1,1872.34,wordex2_6.png
22,2,50,1,3,3,1,3469.88,nonwex5.png
22,1,51,1,1,1,1,1699.42,wordin2_2.png
22,1,52,2,3,3,1,2152.96,wordex7.png
22,1,53,1,2,2,1,1254.5,wordin2_12.png
22,2,54,1,3,3,1,1116.09,nonwin10.png
22,1,55,1,4,4,1,1913.65,wordin3.png
22,2,56,1,4,4,1,2647.17,nonwin2_10.png
22,1,57,2,1,1,1,1700.72,wordex10.png
22,2,58,1,2,2,1,2930.28,nonwex2_12.png
22,1,59,1,4,4,1,2111.85,wordin8.png
22,2,60,2,1,1,1,2397.41,nonwin2_3.png
22,1,61,1,1,1,1,1378.93,wordin2_4.png
22,2,62,1,1,1,1,992.48,nonwin4.png
22,1,63,1,2,2,1,1382.04,wordin10.png
22,1,64,1,3,3,1,1275.6,wordin1.png
22,2,65,1,3,3,1,2913.15,nonwin2_1.png
22,1,66,1,4,4,1,1374.73,wordin2_10.png
22,1,67,2,2,2,1,1748.28,wordin6.png
22,2,68,2,2,2,1,1201.88,nonwin9.png
22,2,69,1,4,4,1,1711.35,nonwex2_10.png
22,1,70,1,3,3,1,1044.88,wordex2_11.png
22,1,71,1,4,4,1,1434.49,wordin2_6.png
22,2,72,1,4,4,1,1320.01,nonwin2_9.png
22,2,73,2,2,2,1,1045.66,nonwin2_6.png
22,2,74,2,1,1,1,987.16,nonwin2_12.png
22,1,75,2,4,4,1,1064.68,wordex2_1.png
22,1,76,2,3,3,1,798.23,wordin2.png
22,2,77,1,3,3,1,811.79,nonwex2_9.png
22,1,78,1,4,4,1,1697.36,wordin11.png
22,2,79,1,1,1,1,1622.92,nonwin7.png
22,1,80,2,2,2,1,772.47,wordex5.png
23,1,1,2,2,2,1,657.75,wordin2_4.png
23,1,2,1,1,1,1,847.28,wordin12.png
23,2,3,1,2,2,1,1132.82,nonwex8.png
23,1,4,1,3,3,1,1042.38,wordin2_7.png
23,1,5,1,2,2,1,1055.93,wordex2_3.png
23,2,6,1,3,3,1,1021.49,nonwin2_2.png
23,2,7,2,3,3,1,891.04,nonwin10.png
23,1,8,2,3,3,1,1072.59,wordin4.png
23,1,9,1,4,4,1,950.15,wordex2_8.png
23,2,10,1,1,1,1,659.69,nonwex11.png
23,1,11,2,3,3,1,833.24,wordex8.png
23,1,12,2,3,3,1,958.8,wordex5.png
23,2,13,1,1,1,1,1940.37,nonwex4.png
23,1,14,1,1,1,1,953.91,wordin6.png
23,2,15,1,2,2,1,639.45,nonwin12.png
23,1,16,2,1,1,1,629.01,wordin10.png
23,1,17,1,2,2,1,618.57,wordin2_2.png
23,1,18,2,1,1,1,760.12,wordex7.png
23,2,19,1,4,4,1,1469.68,nonwex1.png
23,2,20,1,3,3,1,1611.23,nonwin2_5.png
23,2,21,2,1,1,1,1072.77,nonwex2_7.png
23,2,22,1,2,2,1,558.33,nonwin2_8.png
23,2,23,2,3,3,1,843.88,nonwex2_4.png
23,1,24,2,1,1,1,1921.44,wordin5.png
23,2,25,1,2,2,1,926.99,nonwin3.png
23,1,26,2,2,2,1,524.55,wordex1.png
23,1,27,2,4,4,1,1050.09,wordin1.png
23,1,28,2,4,4,1,1487.65,wordex2_6.png
23,1,29,1,4,4,1,1381.2,wordin2_11.png
23,2,30,2,1,1,1,1506.77,nonwin2_6.png
23,1,31,1,3,3,1,1552.31,wordin2_10.png
23,2,32,2,4,4,1,2037.87,nonwin7.png
23,2,33,1,1,1,1,1515.45,nonwex2_8.png
23,1,34,1,4,4,1,1921.09,wordin11.png
23,2,35,1,4,4,1,1030.52,nonwex6.png
23,1,36,1,2,2,1,988.07,wordex2_9.png
23,2,37,1,3,3,1,1361.63,nonwex7.png
23,2,38,2,4,4,1,1671.11,nonwex2_12.png
23,1,39,1,3,3,1,1372.73,wordin2_8.png
23,1,40,2,2,2,1,1754.28,wordin2_5.png
23,2,41,2,1,1,1,1431.85,nonwin6.png
23,1,42,1,2,2,1,917.39,wordin3.png
23,1,43,1,3,3,1,1178.95,wordex2_7.png
23,2,44,1,1,1,1,2560.5,nonwex2_1.png
23,2,45,2,3,3,1,1926.05,nonwin2_7.png
23,1,46,2,3,3,1,2147.6,wordex2_11.png
23,2,47,2,4,4,1,2057.16,nonwin9.png
23,2,48,2,4,4,1,1198.72,nonwex2_9.png
23,2,49,2,2,2,1,1316.27,nonwin2_10.png
23,2,50,2,3,3,1,1193.81,nonwin5.png
23,1,51,2,1,1,1,1375.4,wordex6.png
23,1,52,1,1,1,1,1156.92,wordex10.png
23,1,53,1,1,1,1,1122.49,wordex4.png
23,1,54,1,2,2,1,936,wordin2_3.png
23,2,55,2,2,2,1,1109.58,nonwin1.png
23,2,56,2,2,2,1,1243.13,nonwex12.png
23,2,57,2,4,4,1,1320.69,nonwin2_11.png
23,1,58,1,3,3,1,2166.25,wordin2.png
23,1,59,1,4,4,1,1411.79,wordin7.png
23,1,60,2,4,4,1,2129.31,wordin2_1.png
23,2,61,2,2,2,1,1998.9,nonwin2_9.png
23,2,62,1,2,2,1,1636.36,nonwex2_11.png
23,2,63,2,1,1,1,2210.03,nonwex10.png
23,1,64,2,4,2,0,1575.58,wordex3.png
23,1,65,2,3,3,1,981.08,wordin2_6.png
23,1,66,2,2,2,1,1210.68,wordex2_2.png
23,1,67,1,4,4,1,1312.21,wordex2_5.png
23,2,68,2,2,2,1,973.77,nonwin8.png
23,2,69,1,4,4,1,1179.32,nonwex2_10.png
23,2,70,1,4,4,1,1616.88,nonwex2_3.png
23,1,71,2,2,2,1,1246.42,wordex2_1.png
23,2,72,2,3,3,1,1379.98,nonwex3.png
23,2,73,2,1,1,1,1649.51,nonwex2.png
23,2,74,1,3,3,1,1279.06,nonwin4.png
23,1,75,2,4,4,1,1028.64,wordex11.png
23,1,76,2,1,1,1,1218.19,wordin9.png
23,2,77,1,3,3,1,1079.74,nonwin2_12.png
23,1,78,1,1,1,1,1053.29,wordex9.png
23,2,79,1,1,1,1,1018.75,nonwex2_5.png
23,2,80,1,4,4,1,992.38,nonwex9.png
24,1,1,1,1,1,1,502.64,wordex5.png
24,1,2,2,1,1,1,812.13,wordex3.png
24,2,3,1,1,1,1,993.69,nonwin2_3.png
24,2,4,1,2,2,1,623.26,nonwex2_7.png
24,1,5,1,2,2,1,948.82,wordex8.png
24,2,6,1,2,2,1,1050.34,nonwin2_1.png
24,2,7,2,2,2,1,599.83,nonwex2_5.png
24,2,8,2,4,4,1,1653.31,nonwin2_6.png
24,2,9,1,4,4,1,1971.03,nonwin2_10.png
24,2,10,2,2,2,1,776.57,nonwex4.png
24,1,11,1,1,1,1,718.1,wordin2_3.png
24,2,12,1,3,3,1,979.65,nonwin2_9.png
24,1,13,2,2,2,1,1113.29,wordin2_4.png
24,2,14,1,2,2,1,758.79,nonwex3.png
24,1,15,1,4,4,1,1036.33,wordex2_11.png
24,1,16,1,3,3,1,649.89,wordex2_10.png
24,1,17,1,4,4,1,1135.36,wordex12.png
24,1,18,1,4,4,1,916.98,wordex2_9.png
24,1,19,1,1,1,1,898.61,wordin2_5.png
24,2,20,2,1,1,1,648.11,nonwin10.png
24,1,21,2,4,4,1,949.65,wordex4.png
24,1,22,1,2,2,1,763.26,wordin8.png
24,1,23,2,1,1,1,712.74,wordin1.png
24,2,24,2,4,4,1,1318.29,nonwin3.png
24,2,25,2,3,3,1,1051.88,nonwin2_2.png
24,1,26,1,3,3,1,1697.42,wordin4.png
24,2,27,2,1,1,1,894.95,nonwin1.png
24,1,28,1,1,1,1,692.55,wordex2_7.png
24,1,29,2,3,3,1,938.06,wordex2_1.png
24,2,30,1,2,2,1,927.62,nonwex2_10.png
24,1,31,2,1,1,1,1077.16,wordin2_2.png
24,2,32,2,2,2,1,826.74,nonwex2_9.png
24,1,33,2,4,4,1,1216.28,wordex2.png
24,2,34,1,4,4,1,981.85,nonwin2_5.png
24,1,35,2,3,3,1,2003.38,wordex2_2.png
24,2,36,2,3,3,1,1048.96,nonwin6.png
24,1,37,2,1,1,1,1078.5,wordin2_7.png
24,1,38,1,1,1,1,1172.06,wordin2_11.png
24,1,39,2,3,3,1,1881.62,wordin3.png
24,1,40,2,4,4,1,1423.17,wordin6.png
24,1,41,1,4,4,1,1460.69,wordin2_10.png
24,2,42,1,1,1,1,1370.25,nonwex11.png
24,1,43,1,2,2,1,1063.91,wordin9.png
24,2,44,1,1,1,1,1933.35,nonwex7.png
24,2,45,2,4,4,1,1130.91,nonwex8.png
24,2,46,2,1,1,1,1088.47,nonwin11.png
24,2,47,2,1,1,1,750.03,nonwin2_4.png
24,1,48,2,2,2,1,1227.57,wordin2_1.png
24,1,49,1,2,2,1,849.11,wordex1.png
24,2,50,1,2,2,1,814.65,nonwex5.png
24,1,51,2,3,3,1,1588.25,wordin5.png
24,2,52,2,3,3,1,1481.79,nonwin2_12.png
24,2,53,1,4,4,1,4143.46,nonwin2.png
24,2,54,2,3,3,1,2100.88,nonwex2_1.png
24,1,55,2,2,2,1,1218.46,wordex2_6.png
24,2,56,2,2,2,1,1432.01,nonwin5.png
24,2,57,2,3,3,1,1285.46,nonwex2_12.png
24,1,58,2,2,2,1,987.2,wordin7.png
24,1,59,1,3,3,1,1656.69,wordex9.png
24,1,60,1,4,4,1,2718.19,wordex11.png
24,2,61,1,1,1,1,1163.74,nonwex2.png
24,2,62,1,3,3,1,1081.3,nonwex2_6.png
24,2,63,2,1,1,1,926.88,nonwin8.png
24,2,64,1,3,3,1,876.44,nonwin2_7.png
24,2,65,2,4,4,1,1009.91,nonwex9.png
24,2,66,2,4,4,1,991.55,nonwex12.png
24,1,67,2,3,3,1,837.08,wordin10.png
24,1,68,2,1,1,1,1002.63,wordex6.png
24,1,69,1,3,3,1,1024.21,wordex10.png
24,2,70,1,3,3,1,1213.75,nonwex10.png
24,2,71,1,3,3,1,747.31,nonwex2_2.png
24,1,72,2,4,4,1,1024.72,wordex2_3.png
24,1,73,1,3,3,1,902.41,wordin2.png
24,2,74,2,2,2,1,1483.97,nonwex2_11.png
24,1,75,2,4,4,1,1209.43,wordin2_9.png
24,2,76,1,4,4,1,1455.16,nonwex2_3.png
24,1,77,2,2,2,1,1028.63,wordin2_6.png
24,2,78,1,1,1,1,1018.16,nonwex6.png
24,1,79,1,2,2,1,863.74,wordin12.png
24,2,80,1,4,4,1,1037.25,nonwex1.png
25,1,1,2,3,3,1,1652.34,wordex2_2.png
25,2,2,1,4,4,1,1705.95,nonwin2_2.png
25,1,3,2,1,1,1,1687.45,wordin2_3.png
25,2,4,1,2,2,1,629,nonwex2_11.png
25,1,5,2,3,3,1,842.55,wordex2_1.png
25,2,6,1,3,3,1,528.12,nonwin4.png
25,2,7,2,2,2,1,509.66,nonwex12.png
25,1,8,1,2,2,1,419.21,wordex2_5.png
25,2,9,2,2,2,1,496.78,nonwex6.png
25,1,10,1,4,4,1,902.32,wordex5.png
25,2,11,2,4,4,1,507.88,nonwin9.png
25,1,12,2,1,1,1,921.42,wordin2.png
25,2,13,2,3,3,1,639.01,nonwex10.png
25,2,14,1,4,4,1,468.53,nonwex5.png
25,2,15,2,1,1,1,754.12,nonwin3.png
25,1,16,2,4,4,1,543.67,wordex2_12.png
25,2,17,2,3,3,1,621.2,nonwex11.png
25,2,18,1,2,2,1,490.75,nonwex8.png
25,2,19,2,3,3,1,352.31,nonwex2_2.png
25,1,20,1,1,1,1,765.86,wordex3.png
25,2,21,2,2,2,1,467.44,nonwex1.png
25,2,22,2,1,1,1,768.96,nonwin6.png
25,1,23,2,3,3,1,502.5,wordex2.png
25,2,24,2,2,2,1,668.06,nonwex2_12.png
25,1,25,1,1,1,1,600.38,wordin6.png
25,1,26,1,2,2,1,511.18,wordin5.png
25,1,27,1,1,1,1,604.72,wordex6.png
25,1,28,1,4,4,1,377.11,wordin2_6.png
25,1,29,1,2,2,1,551.82,wordin2_2.png
25,1,30,2,4,4,1,717.38,wordex9.png
25,2,31,2,1,1,1,658.96,nonwex2_9.png
25,1,32,1,3,3,1,504.44,wordin7.png
25,2,33,1,3,3,1,422.04,nonwin2_10.png
25,2,34,2,3,3,1,539.59,nonwin2_5.png
25,2,35,2,1,1,1,721.1,nonwex2_7.png
25,1,36,1,4,4,1,726.7,wordin11.png
25,1,37,1,4,4,1,612.25,wordin1.png
25,2,38,1,4,4,1,433.87,nonwin2_3.png
25,2,39,1,1,1,1,791.3,nonwex3.png
25,1,40,2,2,2,1,644.91,wordin2_5.png
25,1,41,1,3,3,1,586.46,wordin2_12.png
25,2,42,1,1,1,1,720.02,nonwex2_4.png
25,1,43,2,4,4,1,461.57,wordex2_9.png
25,2,44,2,4,4,1,451.12,nonwin12.png
25,1,45,1,1,1,1,632.67,wordex2_8.png
25,1,46,1,1,1,1,678.18,wordex2_11.png
25,2,47,1,4,4,1,531.79,nonwin10.png
25,2,48,1,4,4,1,409.33,nonwex2_1.png
25,1,49,2,3,3,1,470.88,wordin2_11.png
25,1,50,2,4,4,1,660.46,wordex2_3.png
25,1,51,2,2,2,1,705.99,wordin3.png
25,1,52,1,4,4,1,575.55,wordex2_4.png
25,2,53,1,3,3,1,493.09,nonwex7.png
25,2,54,2,1,1,1,754.65,nonwin2_8.png
25,2,55,1,2,2,1,504.2,nonwex2_8.png
25,1,56,1,3,3,1,573.77,wordex12.png
25,1,57,2,2,2,1,755.3,wordin2_7.png
25,1,58,2,2,2,1,784.74,wordex4.png
25,1,59,2,4,4,1,550.41,wordex8.png
25,1,60,1,2,2,1,915.97,wordex10.png
25,1,61,2,1,1,1,801.46,wordin2_10.png
25,2,62,1,1,1,1,823.08,nonwin7.png
25,1,63,1,3,3,1,516.66,wordex11.png
25,2,64,1,1,1,1,1018.2,nonwin2_11.png
25,2,65,2,4,4,1,671.73,nonwin2_6.png
25,2,66,1,2,2,1,709.27,nonwin2_9.png
25,2,67,2,2,2,1,690.84,nonwin8.png
25,2,68,2,3,3,1,536.4,nonwin2.png
25,2,69,1,1,1,1,861.94,nonwin2_4.png
25,1,70,1,3,3,1,955.59,wordex1.png
25,2,71,2,4,4,1,569.08,nonwex4.png
25,1,72,2,3,3,1,382.63,wordin12.png
25,1,73,1,2,2,1,668.16,wordin2_9.png
25,1,74,2,1,1,1,777.71,wordin8.png
25,2,75,2,4,4,1,591.26,nonwin11.png
25,2,76,1,3,3,1,660.82,nonwin2_12.png
25,1,77,2,2,2,1,746.36,wordin2_1.png
25,1,78,2,1,1,1,743.92,wordex2_10.png
25,2,79,1,3,3,1,685.48,nonwex2.png
25,2,80,1,2,2,1,571.06,nonwex9.png
26,2,1,1,4,4,1,973.12,nonwin10.png
26,2,2,2,4,4,1,698.64,nonwex2_11.png
26,1,3,2,4,4,1,488.19,wordin9.png
26,2,4,2,2,2,1,1805.67,nonwin7.png
26,2,5,2,2,2,1,1123.29,nonwex4.png
26,2,6,2,4,4,1,608.84,nonwin9.png
26,1,7,2,3,3,1,782.51,wordex8.png
26,2,8,2,2,2,1,795.96,nonwex2.png
26,1,9,2,4,4,1,529.51,wordex2_5.png
26,1,10,1,4,4,1,567.09,wordex11.png
26,2,11,2,4,4,1,404.65,nonwin8.png
26,2,12,1,2,2,1,866.17,nonwex2_4.png
26,1,13,1,4,4,1,727.75,wordin11.png
26,1,14,2,3,3,1,813.28,wordin2_11.png
26,1,15,1,1,1,1,1050.81,wordex2_1.png
26,1,16,2,1,1,1,896.38,wordex2_11.png
26,1,17,2,1,1,1,661.94,wordin2_4.png
26,1,18,1,1,1,1,491.35,wordex2_2.png
26,2,19,2,3,3,1,809.04,nonwin2_6.png
26,2,20,1,1,1,1,1046.59,nonwex2_5.png
26,2,21,1,4,4,1,668.13,nonwin6.png
26,1,22,2,3,3,1,649.69,wordex12.png
26,2,23,1,2,2,1,631.26,nonwex2_1.png
26,2,24,2,1,1,1,644.83,nonwex3.png
26,2,25,2,3,3,1,866.35,nonwex5.png
26,1,26,1,2,2,1,887.9,wordin5.png
26,1,27,1,3,3,1,781.46,wordin1.png
26,1,28,2,4,4,1,595.02,wordex1.png
26,2,29,1,4,4,1,1008.57,nonwex2_12.png
26,2,30,2,3,3,1,814.11,nonwex2_2.png
26,2,31,2,1,1,1,827.67,nonwin2_12.png
26,2,32,2,3,3,1,657.35,nonwin2_1.png
26,1,33,2,3,3,1,574.78,wordin2_12.png
26,2,34,1,1,1,1,764.34,nonwex2_7.png
26,2,35,2,2,2,1,537.88,nonwex12.png
26,1,36,2,4,4,1,647.44,wordin2_5.png
26,2,37,1,3,3,1,812.99,nonwex2_8.png
26,1,38,1,2,2,1,1362.55,wordin10.png
26,2,39,1,3,3,1,984.1,nonwin2.png
26,2,40,1,1,1,1,933.65,nonwin2_3.png
26,1,41,1,4,4,1,883.19,wordex2_9.png
26,1,42,2,3,3,1,2056.78,wordin2_10.png
26,1,43,1,2,2,1,846.29,wordin8.png
26,1,44,1,4,4,1,1115.86,wordex9.png
26,1,45,1,1,1,1,833.45,wordex5.png
26,2,46,2,1,1,1,1175,nonwin5.png
26,2,47,1,2,2,1,2692.54,nonwex10.png
26,1,48,2,4,3,0,1170.01,wordin4.png
26,2,49,1,4,4,1,527.63,nonwin4.png
26,2,50,1,4,4,1,525.18,nonwex1.png
26,1,51,1,3,3,1,922.73,wordin2_6.png
26,1,52,2,2,2,1,592.32,wordex10.png
26,1,53,2,2,2,1,445.83,wordin2.png
26,1,54,1,3,3,1,867.49,wordin2_3.png
26,1,55,2,1,1,1,1240.86,wordin2_1.png
26,2,56,1,2,2,1,2158.53,nonwex7.png
26,2,57,2,3,3,1,732.06,nonwex2_9.png
26,1,58,1,3,3,1,521.62,wordex2_12.png
26,1,59,1,2,2,1,919.18,wordex2_3.png
26,2,60,1,3,3,1,548.71,nonwex9.png
26,1,61,2,2,2,1,802.25,wordex3.png
26,1,62,1,2,0,0,0,wordin2_2.png
26,2,63,1,3,3,1,565.36,nonwin2_2.png
26,1,64,2,2,2,1,642.92,wordin7.png
26,2,65,1,1,1,1,1600.47,nonwex11.png
26,2,66,1,1,1,1,582.02,nonwin2_9.png
26,2,67,1,2,2,1,2315.57,nonwin1.png
26,2,68,2,2,2,1,553.13,nonwin2_8.png
26,2,69,2,1,1,1,686.59,nonwin12.png
26,2,70,1,3,3,1,668.27,nonwex6.png
26,1,71,1,4,4,1,793.8,wordex2_4.png
26,1,72,1,1,1,1,927.42,wordex6.png
26,2,73,2,4,4,1,628.92,nonwin3.png
26,2,74,2,1,1,1,3138.48,nonwex8.png
26,1,75,2,2,2,1,1824.04,wordex2_8.png
26,1,76,1,3,3,1,1885.55,wordin6.png
26,1,77,1,1,1,1,1323.11,wordin2_9.png
26,1,78,2,1,1,1,648.69,wordin2_8.png
26,2,79,2,4,4,1,582.21,nonwin2_10.png
26,1,80,2,1,1,1,3611.77,wordex2_7.png
27,2,1,2,4,4,1,846.88,nonwex2_5.png
27,1,2,1,3,3,1,1036.41,wordin2_5.png
27,2,3,1,1,1,1,601.96,nonwex2_2.png
27,2,4,1,3,3,1,623.51,nonwex7.png
27,1,5,1,1,1,1,429.08,wordin2_2.png
27,1,6,2,3,3,1,634.55,wordex12.png
27,2,7,1,4,4,1,584.19,nonwex11.png
27,1,8,2,2,2,1,501.73,wordin2_8.png
27,1,9,1,4,4,1,539.29,wordex6.png
27,2,10,1,1,1,1,472.83,nonwex5.png
27,1,11,1,1,1,1,438.39,wordin2_1.png
27,1,12,1,4,4,1,459.97,wordex2_8.png
27,1,13,1,2,2,1,473.49,wordex4.png
27,1,14,2,4,4,1,463.03,wordex2_10.png
27,2,15,2,3,3,1,700.61,nonwin2_4.png
27,2,16,1,4,4,1,442.16,nonwin2_3.png
27,2,17,2,3,3,1,447.71,nonwin2_10.png
27,1,18,2,3,3,1,717.26,wordex2_4.png
27,1,19,2,1,1,1,658.81,wordin4.png
27,2,20,1,4,4,1,456.37,nonwex2_9.png
27,1,21,2,1,1,1,597.93,wordex2_6.png
27,2,22,1,1,1,1,515.47,nonwin10.png
27,2,23,2,3,3,1,497.02,nonwin2_2.png
27,2,24,2,2,2,1,422.57,nonwex3.png
27,2,25,2,4,4,1,372.13,nonwex6.png
27,1,26,2,2,2,1,561.68,wordex10.png
27,1,27,2,1,1,1,383.24,wordex8.png
27,1,28,2,3,3,1,452.79,wordin11.png
27,1,29,1,4,4,1,346.34,wordex2_2.png
27,1,30,2,2,2,1,535.89,wordin2_3.png
27,1,31,2,3,3,1,557.44,wordex9.png
27,1,32,2,1,1,1,483,wordex2_7.png
27,2,33,2,1,1,1,456.55,nonwex2_10.png
27,2,34,1,4,4,1,430.11,nonwin6.png
27,1,35,2,3,3,1,587.66,wordin2_11.png
27,2,36,1,4,4,1,545.21,nonwex2_6.png
27,2,37,1,3,3,1,566.8,nonwin2_1.png
27,2,38,2,4,4,1,596.31,nonwex2_3.png
27,2,39,1,3,3,1,393.87,nonwex12.png
27,2,40,2,4,4,1,367.42,nonwin2.png
27,2,41,2,3,3,1,588.98,nonwex10.png
27,2,42,1,1,1,1,402.54,nonwin2_7.png
27,1,43,1,4,4,1,344.07,wordex3.png
27,1,44,1,1,1,1,357.63,wordin8.png
27,2,45,2,1,1,1,443.18,nonwin2_8.png
27,2,46,2,1,1,1,384.75,nonwin5.png
27,1,47,1,2,2,1,478.3,wordin7.png
27,2,48,2,1,1,1,395.85,nonwex4.png
27,1,49,2,1,1,1,561.4,wordin2_9.png
27,1,50,1,2,2,1,542.95,wordex11.png
27,1,51,1,1,1,1,364.51,wordin2_7.png
27,1,52,2,4,4,1,474.06,wordex5.png
27,2,53,2,2,2,1,495.57,nonwin2_6.png
27,2,54,2,2,2,1,829.17,nonwex2.png
27,2,55,1,3,3,1,498.72,nonwin2_9.png
27,2,56,1,2,2,1,496.22,nonwin11.png
27,2,57,1,1,1,1,397.83,nonwex2_7.png
27,1,58,1,3,3,1,739.38,wordin10.png
27,2,59,1,3,3,1,552.93,nonwex1.png
27,1,60,1,2,2,1,702.48,wordin2_10.png
27,2,61,2,4,4,1,356.03,nonwin2_11.png
27,1,62,1,3,3,1,561.59,wordex2_12.png
27,1,63,1,3,3,1,415.09,wordex2_3.png
27,1,64,1,1,1,1,380.69,wordin12.png
27,1,65,2,4,4,1,362.25,wordin2_12.png
27,1,66,1,2,2,1,623.8,wordin5.png
27,2,67,2,3,3,1,469.35,nonwin4.png
27,2,68,1,2,2,1,498.92,nonwin2_12.png
27,2,69,2,2,2,1,600.46,nonwex9.png
27,2,70,2,1,1,1,446.01,nonwex2_8.png
27,1,71,1,4,4,1,403.56,wordex2_5.png
27,2,72,1,2,4,0,585.11,nonwin3.png
27,1,73,1,3,3,1,494.64,wordex7.png
27,2,74,2,2,2,1,380.22,nonwin1.png
27,1,75,2,2,2,1,449.77,wordex2.png
27,1,76,2,4,4,1,423.33,wordex2_1.png
27,2,77,1,2,2,1,516.89,nonwin12.png
27,1,78,2,2,2,1,650.44,wordin1.png
27,2,79,1,2,2,1,464,nonwin9.png
27,1,80,2,4,4,1,525.54,wordin3.png
28,2,1,1,2,2,1,2217.99,nonwex3.png
28,2,2,1,3,3,1,1639.57,nonwex2_6.png
28,2,3,1,4,4,1,1285.1,nonwex4.png
28,2,4,1,1,1,1,1098.65,nonwin9.png
28,2,5,2,2,2,1,1504.12,nonwex2_1.png
28,1,6,1,2,2,1,1229.77,wordin4.png
28,1,7,1,1,1,1,1035.25,wordex2_1.png
28,1,8,1,1,1,1,920.87,wordin2_6.png
28,1,9,2,3,3,1,1174.42,wordin5.png
28,1,10,1,1,1,1,1067.97,wordex2_6.png
28,2,11,1,2,2,1,1217.55,nonwex12.png
28,2,12,1,3,3,1,1231.11,nonwex2_9.png
28,1,13,2,4,4,1,1588.62,wordin2_1.png
28,2,14,1,1,1,1,1170.18,nonwex2_8.png
28,2,15,1,4,4,1,1063.74,nonwex9.png
28,2,16,2,4,4,1,1517.22,nonwex2_5.png
28,2,17,2,2,2,1,1234.92,nonwex7.png
28,1,18,2,2,2,1,1368.39,wordex11.png
28,2,19,2,3,3,1,1189.95,nonwin2_3.png
28,1,20,2,4,4,1,1059.5,wordex10.png
28,2,21,2,1,1,1,889.07,nonwin2_12.png
28,1,22,2,1,1,1,1014.61,wordin1.png
28,1,23,2,4,4,1,1380.15,wordex8.png
28,1,24,1,3,3,1,1305.71,wordin7.png
28,1,25,1,1,1,1,1023.28,wordin9.png
28,1,26,2,1,1,1,1276.81,wordex2_9.png
28,2,27,2,3,3,1,1282.4,nonwin2_11.png
28,2,28,2,1,1,1,1055.92,nonwex11.png
28,2,29,2,2,2,1,1253.5,nonwin5.png
28,2,30,2,1,1,1,1155.02,nonwin3.png
28,1,31,1,2,2,1,1248.58,wordin2_10.png
28,2,32,2,3,3,1,1222.13,nonwex2_11.png
28,1,33,1,3,3,1,1451.69,wordin8.png
28,2,34,1,1,1,1,1161.23,nonwin2_1.png
28,1,35,2,1,1,1,1174.82,wordex2_4.png
28,1,36,1,3,3,1,1124.37,wordex3.png
28,2,37,2,1,1,1,1337.89,nonwin2.png
28,2,38,2,4,4,1,1343.44,nonwex2_12.png
28,2,39,2,2,2,1,1405.02,nonwex2_7.png
28,1,40,1,1,1,1,1010.55,wordex2_11.png
28,2,41,1,4,4,1,1136.14,nonwin8.png
28,1,42,2,2,2,1,1469.68,wordin3.png
28,1,43,2,3,3,1,1579.22,wordin2_5.png
28,2,44,2,1,1,1,1248.77,nonwin2_2.png
28,2,45,2,3,3,1,1398.31,nonwin10.png
28,1,46,1,4,4,1,1491.87,wordex2_3.png
28,1,47,2,4,4,1,1753.42,wordex2_7.png
28,1,48,1,4,4,1,1342.98,wordin2.png
28,1,49,1,3,3,1,1236.53,wordex2_8.png
28,2,50,1,4,4,1,1277.19,nonwex1.png
28,2,51,2,4,4,1,1306.77,nonwin2_7.png
28,1,52,2,3,3,1,1216.3,wordex2_12.png
28,2,53,1,2,2,1,1381.84,nonwin2_6.png
28,1,54,2,3,3,1,1683.4,wordin2_11.png
28,1,55,2,2,2,1,1561,wordex4.png
28,1,56,1,2,2,1,1622.54,wordex2.png
28,2,57,2,3,3,1,1644.06,nonwin4.png
28,1,58,2,1,1,1,1689.62,wordex2_10.png
28,1,59,2,2,2,1,1519.19,wordin2_8.png
28,1,60,1,2,2,1,2172.71,wordex2_5.png
28,2,61,2,4,4,1,1610.3,nonwin2_4.png
28,2,62,2,2,2,1,1487.83,nonwex6.png
28,2,63,1,4,4,1,1701.37,nonwex8.png
28,2,64,1,3,3,1,2794.96,nonwex2_2.png
28,1,65,2,3,3,1,1768.48,wordex1.png
28,2,66,1,3,3,1,2134.08,nonwex2.png
28,1,67,1,3,3,1,1571.62,wordin2_3.png
28,2,68,2,4,4,1,1121.17,nonwex10.png
28,2,69,1,1,1,1,1174.72,nonwin2_5.png
28,1,70,1,4,4,1,1108.34,wordin2_9.png
28,1,71,2,2,2,1,1649.94,wordex5.png
28,2,72,1,1,1,1,1319.35,nonwin2_8.png
28,1,73,1,4,4,1,1132.94,wordin2_4.png
28,2,74,1,2,2,1,1282.58,nonwin7.png
28,1,75,1,2,2,1,1152.03,wordin10.png
28,1,76,2,1,1,1,1525.48,wordin2_2.png
28,1,77,2,4,4,1,1371.12,wordex7.png
28,2,78,1,2,2,1,2184.67,nonwex5.png
28,2,79,1,3,3,1,1318.35,nonwex2_3.png
28,1,80,1,4,4,1,1019.78,wordex6.png
29,1,1,2,2,2,1,806.24,wordin2_7.png
29,2,2,1,2,2,1,667.79,nonwex2_4.png
29,2,3,2,3,3,1,825.34,nonwex3.png
29,2,4,1,3,3,1,910.9,nonwin2_2.png
29,1,5,2,2,2,1,676.44,wordex12.png
29,1,6,2,3,3,1,618,wordin2_1.png
29,1,7,1,1,1,1,623.56,wordin7.png
29,2,8,1,2,2,1,973.11,nonwex6.png
29,2,9,1,3,3,1,634.66,nonwex2_12.png
29,2,10,2,2,2,1,520.21,nonwex2_7.png
29,2,11,2,3,3,1,581.77,nonwin2_7.png
29,2,12,2,2,2,1,563.33,nonwex2_3.png
29,2,13,2,4,4,1,792.87,nonwex2_8.png
29,1,14,1,3,3,1,534.35,wordex7.png
29,1,15,2,2,2,1,475.98,wordin4.png
29,1,16,1,1,1,1,801.46,wordin3.png
29,2,17,2,4,4,1,791.09,nonwex11.png
29,2,18,1,4,4,1,652.62,nonwin2_4.png
29,2,19,2,2,2,1,538.2,nonwex2_11.png
29,1,20,1,4,4,1,703.74,wordex2.png
29,2,21,1,2,2,1,557.25,nonwex4.png
29,2,22,1,1,1,1,458.86,nonwin11.png
29,1,23,1,1,1,1,648.4,wordex2_11.png
29,2,24,1,1,1,1,685.97,nonwin4.png
29,1,25,2,4,4,1,803.51,wordex2_1.png
29,1,26,2,3,3,1,561.07,wordex2_8.png
29,1,27,2,1,1,1,462.62,wordin1.png
29,2,28,2,4,4,1,628.17,nonwin12.png
29,1,29,1,4,4,1,649.72,wordin9.png
29,2,30,2,2,2,1,575.27,nonwex2_10.png
29,1,31,2,4,4,1,596.72,wordin2_12.png
29,1,32,2,4,4,1,570.38,wordex1.png
29,1,33,2,1,1,1,575.93,wordex6.png
29,1,34,1,3,3,1,613.49,wordex3.png
29,1,35,2,4,4,1,483.03,wordex2_4.png
29,2,36,2,3,3,1,496.51,nonwin7.png
29,2,37,1,3,3,1,534.16,nonwex8.png
29,1,38,1,1,1,1,731.7,wordin2_11.png
29,2,39,1,2,2,1,377.25,nonwex1.png
29,1,40,1,4,4,1,534.8,wordex2_5.png
29,1,41,1,2,2,1,532.37,wordin8.png
29,1,42,1,1,1,1,777.92,wordex5.png
29,2,43,2,1,1,1,639.45,nonwex2_1.png
29,1,44,1,3,3,1,421.01,wordex2_9.png
29,2,45,2,3,3,1,490.57,nonwex2_6.png
29,2,46,2,1,1,1,672.12,nonwin6.png
29,1,47,1,4,4,1,789.68,wordin2_2.png
29,2,48,1,4,4,1,499.23,nonwin2_3.png
29,1,49,2,4,4,1,464.78,wordin11.png
29,1,50,1,3,3,1,670.33,wordin2.png
29,1,51,2,2,2,1,619.88,wordin2_10.png
29,1,52,2,1,1,1,857.43,wordin2_4.png
29,2,53,1,1,1,1,790.99,nonwex2_5.png
29,1,54,1,4,4,1,1324.54,wordex11.png
29,2,55,1,1,1,1,658.1,nonwex12.png
29,2,56,1,4,4,1,687.64,nonwin2_8.png
29,2,57,2,4,4,1,677.2,nonwex5.png
29,1,58,2,1,1,1,482.75,wordin10.png
29,1,59,1,2,2,1,712.31,wordex10.png
29,2,60,1,2,2,1,637.86,nonwex9.png
29,1,61,2,1,1,1,507.42,wordex2_3.png
29,2,62,1,1,1,1,536.98,nonwex2.png
29,1,63,2,3,3,1,566.52,wordin2_8.png
29,1,64,1,2,2,1,548.07,wordex9.png
29,1,65,2,2,2,1,449.61,wordin5.png
29,2,66,2,2,2,1,511.19,nonwin2_11.png
29,2,67,1,4,4,1,588.73,nonwin1.png
29,1,68,2,3,3,1,394.28,wordin2_6.png
29,2,69,1,4,4,1,567.84,nonwin2_1.png
29,1,70,1,2,2,1,365.39,wordex2_6.png
29,2,71,2,1,1,1,490.95,nonwin2_5.png
29,2,72,1,3,3,1,376.49,nonwin5.png
29,1,73,1,3,3,1,646.04,wordin2_5.png
29,1,74,2,3,3,1,667.62,wordin12.png
29,2,75,1,3,3,1,545.17,nonwin3.png
29,2,76,2,1,1,1,878.7,nonwex2_9.png
29,2,77,2,1,1,1,924.29,nonwex2_2.png
29,2,78,2,3,3,1,521.8,nonwin2_6.png
29,2,79,2,4,4,1,639.38,nonwin8.png
29,1,80,1,2,2,1,508.93,wordex4.png