sn,age,sex,cond,reptime,trial,repcond,imcat,imnum,loc,resp,corr,rt,imname
 1,25,2,1, 1, 1,1,2, 6,3,2,1,609.87,unknown_female06.jpg
 1,25,2,1, 1, 2,1,1,12,2,1,1,585.12,unknown_male12.jpg
 1,25,2,1, 1, 3,1,2,18,4,2,1,481.17,unknown_female18.jpg
 1,25,2,1, 1, 4,1,1,13,3,1,1,537.09,unknown_male13.jpg
 1,25,2,1, 1, 5,1,1,17,1,1,1,521.08,unknown_male17.jpg
 1,25,2,1, 1, 6,1,2,21,4,2,1,833.08,unknown_female21.jpg
 1,25,2,1, 1, 7,1,2,16,3,2,1,665.08,unknown_female16.jpg
 1,25,2,1, 1, 8,1,2,12,2,1,2,896.13,unknown_female12.jpg
 1,25,2,1, 1, 9,1,1,14,4,1,1,984.78,unknown_male14.jpg
 1,25,2,1, 1,10,1,2, 5,1,2,1,600.09,unknown_female05.jpg
 1,25,2,1, 1,11,1,2,22,3,2,1,680.04,unknown_female22.jpg
 1,25,2,1, 1,12,1,1,15,4,1,1,552.01,unknown_male15.jpg
 1,25,2,1, 1,13,1,2, 4,2,2,1,719.97,unknown_female04.jpg
 1,25,2,1, 1,14,1,1,16,3,1,1,536.96,unknown_male16.jpg
 1,25,2,1, 1,15,1,1, 1,2,1,1,744.95,unknown_male01.jpg
 1,25,2,1, 1,16,1,1, 9,2,1,1,487.95,unknown_male09.jpg
 1,25,2,1, 1,17,1,2,19,4,2,1,655.97,unknown_female19.jpg
 1,25,2,1, 1,18,1,1, 4,3,1,1,656.90,unknown_male04.jpg
 1,25,2,1, 1,19,1,1,22,4,1,1,416.87,unknown_male22.jpg
 1,25,2,1, 1,20,1,2, 1,1,2,1,472.94,unknown_female01.jpg
 1,25,2,1, 1,21,1,2,23,1,2,1,576.86,unknown_female23.jpg
 1,25,2,1, 1,22,1,1,20,1,1,1,631.95,unknown_male20.jpg
 1,25,2,1, 1,23,1,2,14,2,2,1,560.82,unknown_female14.jpg
 1,25,2,1, 1,24,1,1,21,1,1,1,623.86,unknown_male21.jpg
 1,25,2,1, 2, 1,1,2, 6,3,2,1,831.16,unknown_female06.jpg
 1,25,2,1, 2, 2,1,1,20,1,1,1,678.48,unknown_male20.jpg
 1,25,2,1, 2, 3,1,2,23,1,2,1,631.13,unknown_female23.jpg
 1,25,2,1, 2, 4,1,2,19,4,2,1,559.12,unknown_female19.jpg
 1,25,2,1, 2, 5,1,1,16,3,1,1,623.10,unknown_male16.jpg
 1,25,2,1, 2, 6,1,2,18,4,2,1,463.08,unknown_female18.jpg
 1,25,2,1, 2, 7,1,1, 1,2,1,1,559.08,unknown_male01.jpg
 1,25,2,1, 2, 8,1,1, 9,2,1,1,727.06,unknown_male09.jpg
 1,25,2,1, 2, 9,1,1,22,4,1,1,655.04,unknown_male22.jpg
 1,25,2,1, 2,10,1,1,12,2,1,1,622.09,unknown_male12.jpg
 1,25,2,1, 2,11,1,1,15,4,1,1,671.05,unknown_male15.jpg
 1,25,2,1, 2,12,1,2,16,3,2,1,471.00,unknown_female16.jpg
 1,25,2,1, 2,13,1,2,12,2,2,1,1126.05,unknown_female12.jpg
 1,25,2,1, 2,14,1,1,14,4,1,1,590.98,unknown_male14.jpg
 1,25,2,1, 2,15,1,2,21,4,2,1,662.96,unknown_female21.jpg
 1,25,2,1, 2,16,1,1,17,1,1,1,1253.99,unknown_male17.jpg
 1,25,2,1, 2,17,1,1, 4,3,1,1,894.92,unknown_male04.jpg
 1,25,2,1, 2,18,1,2, 5,1,2,1,549.93,unknown_female05.jpg
 1,25,2,1, 2,19,1,2, 4,2,2,1,454.94,unknown_female04.jpg
 1,25,2,1, 2,20,1,1,13,3,1,1,470.90,unknown_male13.jpg
 1,25,2,1, 2,21,1,2,14,2,2,1,502.92,unknown_female14.jpg
 1,25,2,1, 2,22,1,2, 1,1,2,1,502.87,unknown_female01.jpg
 1,25,2,1, 2,23,1,1,21,1,1,1,766.87,unknown_male21.jpg
 1,25,2,1, 2,24,1,2,22,3,2,1,534.84,unknown_female22.jpg
 1,25,2,1, 3, 1,1,1, 1,2,1,1,950.59,unknown_male01.jpg
 1,25,2,1, 3, 2,1,2,12,2,2,1,678.57,unknown_female12.jpg
 1,25,2,1, 3, 3,1,1,21,1,1,1,646.55,unknown_male21.jpg
 1,25,2,1, 3, 4,1,1,17,1,1,1,454.54,unknown_male17.jpg
 1,25,2,1, 3, 5,1,2, 1,1,2,1,805.57,unknown_female01.jpg
 1,25,2,1, 3, 6,1,2,19,4,2,1,574.51,unknown_female19.jpg
 1,25,2,1, 3, 7,1,2,22,3,2,1,510.47,unknown_female22.jpg
 1,25,2,1, 3, 8,1,2,23,1,2,1,838.49,unknown_female23.jpg
 1,25,2,1, 3, 9,1,2, 5,1,2,1,942.47,unknown_female05.jpg
 1,25,2,1, 3,10,1,1,15,4,1,1,534.45,unknown_male15.jpg
 1,25,2,1, 3,11,1,1,16,3,1,1,702.44,unknown_male16.jpg
 1,25,2,1, 3,12,1,2,18,4,2,1,477.49,unknown_female18.jpg
 1,25,2,1, 3,13,1,1,22,4,1,1,518.42,unknown_male22.jpg
 1,25,2,1, 3,14,1,1,20,1,1,1,638.38,unknown_male20.jpg
 1,25,2,1, 3,15,1,2, 4,2,2,1,1078.40,unknown_female04.jpg
 1,25,2,1, 3,16,1,2,21,4,2,1,574.38,unknown_female21.jpg
 1,25,2,1, 3,17,1,2,16,3,2,1,518.36,unknown_female16.jpg
 1,25,2,1, 3,18,1,1, 9,2,1,1,429.37,unknown_male09.jpg
 1,25,2,1, 3,19,1,1,12,2,1,1,478.33,unknown_male12.jpg
 1,25,2,1, 3,20,1,2, 6,3,2,1,646.32,unknown_female06.jpg
 1,25,2,1, 3,21,1,1,13,3,1,1,518.31,unknown_male13.jpg
 1,25,2,1, 3,22,1,1,14,4,1,1,462.27,unknown_male14.jpg
 1,25,2,1, 3,23,1,2,14,2,1,2,430.29,unknown_female14.jpg
 1,25,2,1, 3,24,1,1, 4,3,1,1,554.39,unknown_male04.jpg
 1,25,2,1, 4, 1,1,2, 5,1,2,1,740.35,unknown_female05.jpg
 1,25,2,1, 4, 2,1,1,16,3,1,1,596.36,unknown_male16.jpg
 1,25,2,1, 4, 3,1,1, 9,2,1,1,1092.34,unknown_male09.jpg
 1,25,2,1, 4, 4,1,1,15,4,1,1,484.22,unknown_male15.jpg
 1,25,2,1, 4, 5,1,1, 4,3,1,1,604.31,unknown_male04.jpg
 1,25,2,1, 4, 6,1,2,18,4,2,1,724.26,unknown_female18.jpg
 1,25,2,1, 4, 7,1,1,13,3,1,1,468.28,unknown_male13.jpg
 1,25,2,1, 4, 8,1,1,21,1,1,1,556.28,unknown_male21.jpg
 1,25,2,1, 4, 9,1,1,14,4,1,1,492.30,unknown_male14.jpg
 1,25,2,1, 4,10,1,1,22,4,1,1,436.27,unknown_male22.jpg
 1,25,2,1, 4,11,1,2,23,1,2,1,532.23,unknown_female23.jpg
 1,25,2,1, 4,12,1,1,12,2,1,1,900.21,unknown_male12.jpg
 1,25,2,1, 4,13,1,2, 6,3,2,1,588.21,unknown_female06.jpg
 1,25,2,1, 4,14,1,2, 4,2,2,1,452.23,unknown_female04.jpg
 1,25,2,1, 4,15,1,2,22,3,2,1,395.23,unknown_female22.jpg
 1,25,2,1, 4,16,1,2,12,2,2,1,523.19,unknown_female12.jpg
 1,25,2,1, 4,17,1,2,19,4,2,1,427.18,unknown_female19.jpg
 1,25,2,1, 4,18,1,1, 1,2,1,1,507.18,unknown_male01.jpg
 1,25,2,1, 4,19,1,2,21,4,2,1,620.09,unknown_female21.jpg
 1,25,2,1, 4,20,1,2, 1,1,2,1,476.10,unknown_female01.jpg
 1,25,2,1, 4,21,1,2,14,2,2,1,468.09,unknown_female14.jpg
 1,25,2,1, 4,22,1,1,20,1,2,2,420.10,unknown_male20.jpg
 1,25,2,1, 4,23,1,2,16,3,2,1,531.11,unknown_female16.jpg
 1,25,2,1, 4,24,1,1,17,1,1,1,572.05,unknown_male17.jpg
 1,25,2,1, 5, 1,1,2,22,3,2,1,831.78,unknown_female22.jpg
 1,25,2,1, 5, 2,1,2,14,2,0,0,0.00,unknown_female14.jpg
 1,25,2,1, 5, 3,1,1, 4,3,2,2,150.79,unknown_male04.jpg
 1,25,2,1, 5, 4,1,2,16,3,2,1,598.77,unknown_female16.jpg
 1,25,2,1, 5, 5,1,2, 5,1,2,1,518.75,unknown_female05.jpg
 1,25,2,1, 5, 6,1,1,15,4,1,1,502.75,unknown_male15.jpg
 1,25,2,1, 5, 7,1,1,22,4,1,1,462.74,unknown_male22.jpg
 1,25,2,1, 5, 8,1,1,17,1,1,1,319.70,unknown_male17.jpg
 1,25,2,1, 5, 9,1,2, 4,2,2,1,623.67,unknown_female04.jpg
 1,25,2,1, 5,10,1,1, 1,2,1,1,503.68,unknown_male01.jpg
 1,25,2,1, 5,11,1,2,21,4,2,1,647.62,unknown_female21.jpg
 1,25,2,1, 5,12,1,1,12,2,1,1,566.67,unknown_male12.jpg
 1,25,2,1, 5,13,1,1, 9,2,1,1,583.61,unknown_male09.jpg
 1,25,2,1, 5,14,1,2,23,1,2,1,479.59,unknown_female23.jpg
 1,25,2,1, 5,15,1,2, 6,3,2,1,543.57,unknown_female06.jpg
 1,25,2,1, 5,16,1,2,12,2,2,1,495.51,unknown_female12.jpg
 1,25,2,1, 5,17,1,1,14,4,1,1,486.63,unknown_male14.jpg
 1,25,2,1, 5,18,1,2,18,4,2,1,519.57,unknown_female18.jpg
 1,25,2,1, 5,19,1,2,19,4,2,1,711.52,unknown_female19.jpg
 1,25,2,1, 5,20,1,1,16,3,1,1,591.52,unknown_male16.jpg
 1,25,2,1, 5,21,1,1,13,3,1,1,807.49,unknown_male13.jpg
 1,25,2,1, 5,22,1,1,20,1,1,1,631.50,unknown_male20.jpg
 1,25,2,1, 5,23,1,2, 1,1,2,1,567.49,unknown_female01.jpg
 1,25,2,1, 5,24,1,1,21,1,1,1,615.47,unknown_male21.jpg
 1,25,2,1, 6, 1,1,1, 1,2,1,1,400.90,unknown_male01.jpg
 1,25,2,1, 6, 2,1,2, 5,1,2,1,455.94,unknown_female05.jpg
 1,25,2,1, 6, 3,1,1,14,4,1,1,376.88,unknown_male14.jpg
 1,25,2,1, 6, 4,1,2,22,3,2,1,448.86,unknown_female22.jpg
 1,25,2,1, 6, 5,1,1,22,4,1,1,488.84,unknown_male22.jpg
 1,25,2,1, 6, 6,1,2,23,1,2,1,408.84,unknown_female23.jpg
 1,25,2,1, 6, 7,1,1, 4,3,1,1,368.85,unknown_male04.jpg
 1,25,2,1, 6, 8,1,2,18,4,2,1,295.87,unknown_female18.jpg
 1,25,2,1, 6, 9,1,2, 1,1,2,1,528.81,unknown_female01.jpg
 1,25,2,1, 6,10,1,2,12,2,2,1,464.78,unknown_female12.jpg
 1,25,2,1, 6,11,1,1,12,2,1,1,631.80,unknown_male12.jpg
 1,25,2,1, 6,12,1,1,17,1,1,1,360.76,unknown_male17.jpg
 1,25,2,1, 6,13,1,1, 9,2,1,1,352.73,unknown_male09.jpg
 1,25,2,1, 6,14,1,2,19,4,2,1,480.73,unknown_female19.jpg
 1,25,2,1, 6,15,1,1,20,1,1,1,640.75,unknown_male20.jpg
 1,25,2,1, 6,16,1,2,21,4,2,1,447.74,unknown_female21.jpg
 1,25,2,1, 6,17,1,1,16,3,1,1,472.68,unknown_male16.jpg
 1,25,2,1, 6,18,1,1,13,3,1,1,640.66,unknown_male13.jpg
 1,25,2,1, 6,19,1,1,21,1,1,1,311.71,unknown_male21.jpg
 1,25,2,1, 6,20,1,2, 6,3,2,1,488.65,unknown_female06.jpg
 1,25,2,1, 6,21,1,1,15,4,1,1,696.63,unknown_male15.jpg
 1,25,2,1, 6,22,1,2,16,3,2,1,784.64,unknown_female16.jpg
 1,25,2,1, 6,23,1,2, 4,2,2,1,1040.62,unknown_female04.jpg
 1,25,2,1, 6,24,1,2,14,2,2,1,592.59,unknown_female14.jpg
 1,25,2,1, 7, 1,1,2,21,4,2,1,806.93,unknown_female21.jpg
 1,25,2,1, 7, 2,1,1, 4,3,1,1,494.90,unknown_male04.jpg
 1,25,2,1, 7, 3,1,2,16,3,2,1,565.92,unknown_female16.jpg
 1,25,2,1, 7, 4,1,2, 6,3,2,1,470.89,unknown_female06.jpg
 1,25,2,1, 7, 5,1,1,14,4,2,2,238.93,unknown_male14.jpg
 1,25,2,1, 7, 6,1,2, 4,2,2,1,526.87,unknown_female04.jpg
 1,25,2,1, 7, 7,1,1,15,4,1,1,494.83,unknown_male15.jpg
 1,25,2,1, 7, 8,1,2,23,1,2,1,517.87,unknown_female23.jpg
 1,25,2,1, 7, 9,1,1, 9,2,1,1,486.82,unknown_male09.jpg
 1,25,2,1, 7,10,1,1,21,1,1,1,477.87,unknown_male21.jpg
 1,25,2,1, 7,11,1,1,22,4,1,1,382.80,unknown_male22.jpg
 1,25,2,1, 7,12,1,1, 1,2,1,1,398.79,unknown_male01.jpg
 1,25,2,1, 7,13,1,2,22,3,2,1,470.79,unknown_female22.jpg
 1,25,2,1, 7,14,1,2,12,2,2,1,550.76,unknown_female12.jpg
 1,25,2,1, 7,15,1,2,14,2,2,1,454.82,unknown_female14.jpg
 1,25,2,1, 7,16,1,2,18,4,2,1,334.73,unknown_female18.jpg
 1,25,2,1, 7,17,1,1,13,3,2,2,365.79,unknown_male13.jpg
 1,25,2,1, 7,18,1,2, 1,1,2,1,670.70,unknown_female01.jpg
 1,25,2,1, 7,19,1,1,12,2,1,1,582.69,unknown_male12.jpg
 1,25,2,1, 7,20,1,1,17,1,1,1,494.67,unknown_male17.jpg
 1,25,2,1, 7,21,1,1,20,1,1,1,582.61,unknown_male20.jpg
 1,25,2,1, 7,22,1,2, 5,1,2,1,845.68,unknown_female05.jpg
 1,25,2,1, 7,23,1,2,19,4,2,1,517.67,unknown_female19.jpg
 1,25,2,1, 7,24,1,1,16,3,1,1,502.61,unknown_male16.jpg
 1,25,2,1, 8, 1,1,2,21,4,2,1,418.54,unknown_female21.jpg
 1,25,2,1, 8, 2,1,1,16,3,1,1,441.56,unknown_male16.jpg
 1,25,2,1, 8, 3,1,1,15,4,1,1,554.52,unknown_male15.jpg
 1,25,2,1, 8, 4,1,2,18,4,2,1,434.49,unknown_female18.jpg
 1,25,2,1, 8, 5,1,1,13,3,1,1,514.49,unknown_male13.jpg
 1,25,2,1, 8, 6,1,1,12,2,1,1,593.52,unknown_male12.jpg
 1,25,2,1, 8, 7,1,2,23,1,2,1,490.48,unknown_female23.jpg
 1,25,2,1, 8, 8,1,2, 1,1,2,1,521.49,unknown_female01.jpg
 1,25,2,1, 8, 9,1,1, 4,3,1,1,537.47,unknown_male04.jpg
 1,25,2,1, 8,10,1,2,22,3,2,1,490.42,unknown_female22.jpg
 1,25,2,1, 8,11,1,2,16,3,2,1,442.32,unknown_female16.jpg
 1,25,2,1, 8,12,1,1, 9,2,1,1,610.46,unknown_male09.jpg
 1,25,2,1, 8,13,1,1,20,1,1,1,650.42,unknown_male20.jpg
 1,25,2,1, 8,14,1,1,21,1,1,1,529.41,unknown_male21.jpg
 1,25,2,1, 8,15,1,1, 1,2,1,1,506.35,unknown_male01.jpg
 1,25,2,1, 8,16,1,2,14,2,2,1,473.39,unknown_female14.jpg
 1,25,2,1, 8,17,1,2,19,4,2,1,481.29,unknown_female19.jpg
 1,25,2,1, 8,18,1,2, 4,2,2,1,497.36,unknown_female04.jpg
 1,25,2,1, 8,19,1,1,22,4,1,1,530.31,unknown_male22.jpg
 1,25,2,1, 8,20,1,1,14,4,1,1,449.31,unknown_male14.jpg
 1,25,2,1, 8,21,1,1,17,1,1,1,418.27,unknown_male17.jpg
 1,25,2,1, 8,22,1,2,12,2,2,1,450.27,unknown_female12.jpg
 1,25,2,1, 8,23,1,2, 6,3,2,1,530.24,unknown_female06.jpg
 1,25,2,1, 8,24,1,2, 5,1,2,1,722.24,unknown_female05.jpg
 2,25,1,2, 1, 1,1,2,11,3,2,1,657.57,famous_female11.jpg
 2,25,1,2, 1, 2,1,1, 4,4,1,1,608.75,famous_male04.jpg
 2,25,1,2, 1, 3,1,2, 5,3,2,1,656.74,famous_female05.jpg
 2,25,1,2, 1, 4,1,1,22,1,1,1,559.61,famous_male22.jpg
 2,25,1,2, 1, 5,1,1,16,3,1,1,864.83,famous_male16.jpg
 2,25,1,2, 1, 6,1,2, 8,4,2,1,920.74,famous_female08.jpg
 2,25,1,2, 1, 7,1,1, 9,1,1,1,736.74,famous_male09.jpg
 2,25,1,2, 1, 8,1,1,23,2,1,1,767.40,famous_male23.jpg
 2,25,1,2, 1, 9,1,1,18,4,1,1,687.42,famous_male18.jpg
 2,25,1,2, 1,10,1,2,18,2,2,1,855.37,famous_female18.jpg
 2,25,1,2, 1,11,1,2,21,1,2,1,952.66,famous_female21.jpg
 2,25,1,2, 1,12,1,2,22,2,2,1,903.38,famous_female22.jpg
 2,25,1,2, 1,13,1,2,24,1,2,1,751.34,famous_female24.jpg
 2,25,1,2, 1,14,1,2,14,2,2,1,816.64,famous_female14.jpg
 2,25,1,2, 1,15,1,1,15,1,1,1,784.61,famous_male15.jpg
 2,25,1,2, 1,16,1,2, 6,4,2,1,888.59,famous_female06.jpg
 2,25,1,2, 1,17,1,1,24,3,1,1,935.69,famous_male24.jpg
 2,25,1,2, 1,18,1,1, 5,2,1,1,760.63,famous_male05.jpg
 2,25,1,2, 1,19,1,1,19,4,1,1,775.67,famous_male19.jpg
 2,25,1,2, 1,20,1,2,20,3,2,1,767.65,famous_female20.jpg
 2,25,1,2, 1,21,1,2,13,1,2,1,744.52,famous_female13.jpg
 2,25,1,2, 1,22,1,2, 3,4,2,1,840.52,famous_female03.jpg
 2,25,1,2, 1,23,1,1, 7,3,1,1,728.47,famous_male07.jpg
 2,25,1,2, 1,24,1,1,11,2,2,2,904.49,famous_male11.jpg
 2,25,1,2, 2, 1,1,1,16,3,1,1,942.30,famous_male16.jpg
 2,25,1,2, 2, 2,1,1,24,3,1,1,526.24,famous_male24.jpg
 2,25,1,2, 2, 3,1,2,11,3,2,1,590.22,famous_female11.jpg
 2,25,1,2, 2, 4,1,2,24,1,2,1,590.18,famous_female24.jpg
 2,25,1,2, 2, 5,1,2, 5,3,2,1,678.20,famous_female05.jpg
 2,25,1,2, 2, 6,1,2,22,2,1,2,1166.21,famous_female22.jpg
 2,25,1,2, 2, 7,1,1, 9,1,1,1,734.16,famous_male09.jpg
 2,25,1,2, 2, 8,1,1,18,4,1,1,892.83,famous_male18.jpg
 2,25,1,2, 2, 9,1,1,11,2,1,1,518.14,famous_male11.jpg
 2,25,1,2, 2,10,1,1, 7,3,1,1,502.11,famous_male07.jpg
 2,25,1,2, 2,11,1,2, 6,4,2,1,566.12,famous_female06.jpg
 2,25,1,2, 2,12,1,1,19,4,1,1,814.11,famous_male19.jpg
 2,25,1,2, 2,13,1,2,13,1,2,1,654.06,famous_female13.jpg
 2,25,1,2, 2,14,1,2,20,3,2,1,678.09,famous_female20.jpg
 2,25,1,2, 2,15,1,2, 3,4,2,1,454.10,famous_female03.jpg
 2,25,1,2, 2,16,1,1, 5,2,1,1,614.07,famous_male05.jpg
 2,25,1,2, 2,17,1,2,18,2,2,1,646.05,famous_female18.jpg
 2,25,1,2, 2,18,1,1,23,2,1,1,646.00,famous_male23.jpg
 2,25,1,2, 2,19,1,2, 8,4,2,1,662.00,famous_female08.jpg
 2,25,1,2, 2,20,1,1, 4,4,1,1,525.99,famous_male04.jpg
 2,25,1,2, 2,21,1,1,15,1,1,1,557.99,famous_male15.jpg
 2,25,1,2, 2,22,1,2,21,1,2,1,789.97,famous_female21.jpg
 2,25,1,2, 2,23,1,2,14,2,2,1,861.95,famous_female14.jpg
 2,25,1,2, 2,24,1,1,22,1,1,1,573.94,famous_male22.jpg
 2,25,1,2, 3, 1,1,2,11,3,2,1,572.88,famous_female11.jpg
 2,25,1,2, 3, 2,1,1, 7,3,1,1,708.87,famous_male07.jpg
 2,25,1,2, 3, 3,1,1,11,2,1,1,612.86,famous_male11.jpg
 2,25,1,2, 3, 4,1,1, 5,2,1,1,476.84,famous_male05.jpg
 2,25,1,2, 3, 5,1,2, 8,4,2,1,556.81,famous_female08.jpg
 2,25,1,2, 3, 6,1,1, 9,1,1,1,724.81,famous_male09.jpg
 2,25,1,2, 3, 7,1,1,19,4,1,1,588.81,famous_male19.jpg
 2,25,1,2, 3, 8,1,2,21,1,2,1,628.79,famous_female21.jpg
 2,25,1,2, 3, 9,1,2, 6,4,2,1,748.78,famous_female06.jpg
 2,25,1,2, 3,10,1,2,20,3,2,1,740.83,famous_female20.jpg
 2,25,1,2, 3,11,1,1,15,1,1,1,660.73,famous_male15.jpg
 2,25,1,2, 3,12,1,1,22,1,1,1,596.79,famous_male22.jpg
 2,25,1,2, 3,13,1,2, 3,4,2,1,572.70,famous_female03.jpg
 2,25,1,2, 3,14,1,1,18,4,1,1,732.70,famous_male18.jpg
 2,25,1,2, 3,15,1,2,22,2,2,1,652.72,famous_female22.jpg
 2,25,1,2, 3,16,1,2,14,2,2,1,508.67,famous_female14.jpg
 2,25,1,2, 3,17,1,1,16,3,1,1,500.67,famous_male16.jpg
 2,25,1,2, 3,18,1,2,24,1,2,1,460.65,famous_female24.jpg
 2,25,1,2, 3,19,1,2,13,1,2,1,468.63,famous_female13.jpg
 2,25,1,2, 3,20,1,2,18,2,2,1,596.62,famous_female18.jpg
 2,25,1,2, 3,21,1,1,23,2,1,1,540.62,famous_male23.jpg
 2,25,1,2, 3,22,1,1, 4,4,2,2,644.60,famous_male04.jpg
 2,25,1,2, 3,23,1,2, 5,3,2,1,556.56,famous_female05.jpg
 2,25,1,2, 3,24,1,1,24,3,1,1,444.57,famous_male24.jpg
 2,25,1,2, 4, 1,1,2, 3,4,2,1,506.69,famous_female03.jpg
 2,25,1,2, 4, 2,1,1,11,2,1,1,570.66,famous_male11.jpg
 2,25,1,2, 4, 3,1,2,14,2,2,1,506.64,famous_female14.jpg
 2,25,1,2, 4, 4,1,1,19,4,1,1,762.62,famous_male19.jpg
 2,25,1,2, 4, 5,1,2, 6,4,2,1,602.64,famous_female06.jpg
 2,25,1,2, 4, 6,1,2, 5,3,2,1,562.61,famous_female05.jpg
 2,25,1,2, 4, 7,1,2,18,2,2,1,682.59,famous_female18.jpg
 2,25,1,2, 4, 8,1,1, 9,1,1,1,594.58,famous_male09.jpg
 2,25,1,2, 4, 9,1,2,24,1,2,1,610.56,famous_female24.jpg
 2,25,1,2, 4,10,1,1,18,4,1,1,754.54,famous_male18.jpg
 2,25,1,2, 4,11,1,1,16,3,1,1,498.54,famous_male16.jpg
 2,25,1,2, 4,12,1,2,21,1,2,1,930.48,famous_female21.jpg
 2,25,1,2, 4,13,1,2,13,1,1,2,858.48,famous_female13.jpg
 2,25,1,2, 4,14,1,1,15,1,1,1,690.50,famous_male15.jpg
 2,25,1,2, 4,15,1,2,11,3,2,1,514.48,famous_female11.jpg
 2,25,1,2, 4,16,1,1, 7,3,1,1,578.48,famous_male07.jpg
 2,25,1,2, 4,17,1,2, 8,4,2,1,642.46,famous_female08.jpg
 2,25,1,2, 4,18,1,2,22,2,2,1,450.51,famous_female22.jpg
 2,25,1,2, 4,19,1,1,22,1,1,1,578.41,famous_male22.jpg
 2,25,1,2, 4,20,1,1, 5,2,1,1,594.42,famous_male05.jpg
 2,25,1,2, 4,21,1,1,24,3,1,1,570.40,famous_male24.jpg
 2,25,1,2, 4,22,1,1, 4,4,1,1,546.39,famous_male04.jpg
 2,25,1,2, 4,23,1,2,20,3,2,1,562.38,famous_female20.jpg
 2,25,1,2, 4,24,1,1,23,2,1,1,554.36,famous_male23.jpg
 2,25,1,2, 5, 1,1,2,14,2,2,1,623.04,famous_female14.jpg
 2,25,1,2, 5, 2,1,1, 4,4,1,1,599.03,famous_male04.jpg
 2,25,1,2, 5, 3,1,2,22,2,2,1,423.02,famous_female22.jpg
 2,25,1,2, 5, 4,1,1,11,2,1,1,535.00,famous_male11.jpg
 2,25,1,2, 5, 5,1,1,19,4,1,1,559.03,famous_male19.jpg
 2,25,1,2, 5, 6,1,2,11,3,2,1,518.98,famous_female11.jpg
 2,25,1,2, 5, 7,1,2,13,1,2,1,558.95,famous_female13.jpg
 2,25,1,2, 5, 8,1,1, 9,1,1,1,502.95,famous_male09.jpg
 2,25,1,2, 5, 9,1,2,24,1,2,1,534.93,famous_female24.jpg
 2,25,1,2, 5,10,1,1, 5,2,1,1,558.92,famous_male05.jpg
 2,25,1,2, 5,11,1,1,24,3,1,1,550.92,famous_male24.jpg
 2,25,1,2, 5,12,1,2, 3,4,2,1,494.90,famous_female03.jpg
 2,25,1,2, 5,13,1,2, 8,4,2,1,542.87,famous_female08.jpg
 2,25,1,2, 5,14,1,2, 6,4,2,1,550.51,famous_female06.jpg
 2,25,1,2, 5,15,1,1,15,1,1,1,686.85,famous_male15.jpg
 2,25,1,2, 5,16,1,1, 7,3,1,1,582.84,famous_male07.jpg
 2,25,1,2, 5,17,1,2, 5,3,2,1,558.83,famous_female05.jpg
 2,25,1,2, 5,18,1,2,20,3,2,1,558.89,famous_female20.jpg
 2,25,1,2, 5,19,1,2,21,1,2,1,629.96,famous_female21.jpg
 2,25,1,2, 5,20,1,1,18,4,1,1,502.78,famous_male18.jpg
 2,25,1,2, 5,21,1,2,18,2,2,1,582.76,famous_female18.jpg
 2,25,1,2, 5,22,1,1,16,3,1,1,750.75,famous_male16.jpg
 2,25,1,2, 5,23,1,1,23,2,1,1,518.74,famous_male23.jpg
 2,25,1,2, 5,24,1,1,22,1,1,1,438.73,famous_male22.jpg
 2,25,1,2, 6, 1,1,1,23,2,1,1,517.79,famous_male23.jpg
 2,25,1,2, 6, 2,1,2, 3,4,2,1,501.72,famous_female03.jpg
 2,25,1,2, 6, 3,1,1,19,4,1,1,549.71,famous_male19.jpg
 2,25,1,2, 6, 4,1,1, 9,1,1,1,645.70,famous_male09.jpg
 2,25,1,2, 6, 5,1,2,21,1,2,1,597.69,famous_female21.jpg
 2,25,1,2, 6, 6,1,2,22,2,2,1,957.67,famous_female22.jpg
 2,25,1,2, 6, 7,1,2,13,1,2,1,613.65,famous_female13.jpg
 2,25,1,2, 6, 8,1,2, 8,4,2,1,621.64,famous_female08.jpg
 2,25,1,2, 6, 9,1,2,11,3,2,1,661.64,famous_female11.jpg
 2,25,1,2, 6,10,1,1,11,2,1,1,581.60,famous_male11.jpg
 2,25,1,2, 6,11,1,2, 5,3,2,1,445.61,famous_female05.jpg
 2,25,1,2, 6,12,1,2,24,1,2,1,501.57,famous_female24.jpg
 2,25,1,2, 6,13,1,2,18,2,2,1,501.57,famous_female18.jpg
 2,25,1,2, 6,14,1,1, 7,3,1,1,541.56,famous_male07.jpg
 2,25,1,2, 6,15,1,1,16,3,1,1,421.55,famous_male16.jpg
 2,25,1,2, 6,16,1,1,18,4,1,1,365.53,famous_male18.jpg
 2,25,1,2, 6,17,1,1, 4,4,1,1,373.53,famous_male04.jpg
 2,25,1,2, 6,18,1,1,15,1,1,1,397.51,famous_male15.jpg
 2,25,1,2, 6,19,1,2,20,3,2,1,517.50,famous_female20.jpg
 2,25,1,2, 6,20,1,2,14,2,2,1,565.48,famous_female14.jpg
 2,25,1,2, 6,21,1,1,24,3,1,1,557.45,famous_male24.jpg
 2,25,1,2, 6,22,1,1, 5,2,1,1,357.46,famous_male05.jpg
 2,25,1,2, 6,23,1,1,22,1,1,1,469.46,famous_male22.jpg
 2,25,1,2, 6,24,1,2, 6,4,2,1,541.43,famous_female06.jpg
 2,25,1,2, 7, 1,1,1,18,4,1,1,444.76,famous_male18.jpg
 2,25,1,2, 7, 2,1,2,24,1,2,1,436.68,famous_female24.jpg
 2,25,1,2, 7, 3,1,1,11,2,1,1,492.66,famous_male11.jpg
 2,25,1,2, 7, 4,1,1, 5,2,1,1,396.65,famous_male05.jpg
 2,25,1,2, 7, 5,1,1, 7,3,1,1,548.63,famous_male07.jpg
 2,25,1,2, 7, 6,1,1,24,3,1,1,468.59,famous_male24.jpg
 2,25,1,2, 7, 7,1,1,22,1,1,1,684.52,famous_male22.jpg
 2,25,1,2, 7, 8,1,2, 8,4,2,1,636.60,famous_female08.jpg
 2,25,1,2, 7, 9,1,2, 3,4,2,1,548.58,famous_female03.jpg
 2,25,1,2, 7,10,1,2,22,2,2,1,508.19,famous_female22.jpg
 2,25,1,2, 7,11,1,2,13,1,2,1,636.57,famous_female13.jpg
 2,25,1,2, 7,12,1,1,23,2,1,1,588.55,famous_male23.jpg
 2,25,1,2, 7,13,1,1,16,3,1,1,580.54,famous_male16.jpg
 2,25,1,2, 7,14,1,1,15,1,1,1,564.50,famous_male15.jpg
 2,25,1,2, 7,15,1,2,14,2,2,1,588.51,famous_female14.jpg
 2,25,1,2, 7,16,1,1,19,4,1,1,716.49,famous_male19.jpg
 2,25,1,2, 7,17,1,2, 5,3,2,1,580.47,famous_female05.jpg
 2,25,1,2, 7,18,1,1, 4,4,1,1,588.45,famous_male04.jpg
 2,25,1,2, 7,19,1,2,11,3,2,1,540.46,famous_female11.jpg
 2,25,1,2, 7,20,1,2,20,3,2,1,764.44,famous_female20.jpg
 2,25,1,2, 7,21,1,2,18,2,2,1,628.39,famous_female18.jpg
 2,25,1,2, 7,22,1,2,21,1,2,1,716.41,famous_female21.jpg
 2,25,1,2, 7,23,1,2, 6,4,2,1,692.39,famous_female06.jpg
 2,25,1,2, 7,24,1,1, 9,1,1,1,732.37,famous_male09.jpg
 2,25,1,2, 8, 1,1,1,24,3,1,1,550.84,famous_male24.jpg
 2,25,1,2, 8, 2,1,1,18,4,1,1,446.78,famous_male18.jpg
 2,25,1,2, 8, 3,1,2, 8,4,2,1,454.79,famous_female08.jpg
 2,25,1,2, 8, 4,1,2,13,1,2,1,590.76,famous_female13.jpg
 2,25,1,2, 8, 5,1,2,24,1,2,1,622.76,famous_female24.jpg
 2,25,1,2, 8, 6,1,1,16,3,1,1,598.74,famous_male16.jpg
 2,25,1,2, 8, 7,1,2, 3,4,2,1,670.74,famous_female03.jpg
 2,25,1,2, 8, 8,1,2,11,3,2,1,558.73,famous_female11.jpg
 2,25,1,2, 8, 9,1,2, 5,3,2,1,614.72,famous_female05.jpg
 2,25,1,2, 8,10,1,2, 6,4,2,1,606.72,famous_female06.jpg
 2,25,1,2, 8,11,1,1, 5,2,1,1,550.67,famous_male05.jpg
 2,25,1,2, 8,12,1,1, 9,1,1,1,502.63,famous_male09.jpg
 2,25,1,2, 8,13,1,2,20,3,2,1,558.66,famous_female20.jpg
 2,25,1,2, 8,14,1,2,18,2,2,1,526.63,famous_female18.jpg
 2,25,1,2, 8,15,1,1,19,4,1,1,598.62,famous_male19.jpg
 2,25,1,2, 8,16,1,1,15,1,1,1,454.62,famous_male15.jpg
 2,25,1,2, 8,17,1,1, 7,3,1,1,422.60,famous_male07.jpg
 2,25,1,2, 8,18,1,1,23,2,1,1,573.25,famous_male23.jpg
 2,25,1,2, 8,19,1,1, 4,4,1,1,486.57,famous_male04.jpg
 2,25,1,2, 8,20,1,1,22,1,1,1,438.56,famous_male22.jpg
 2,25,1,2, 8,21,1,2,14,2,2,1,494.54,famous_female14.jpg
 2,25,1,2, 8,22,1,2,21,1,2,1,598.54,famous_female21.jpg
 2,25,1,2, 8,23,1,1,11,2,1,1,582.52,famous_male11.jpg
 2,25,1,2, 8,24,1,2,22,2,2,1,486.50,famous_female22.jpg
 3,24,2,1, 1, 1,1,2,12,4,2,1,867.23,unknown_female12.jpg
 3,24,2,1, 1, 2,1,1,18,1,1,1,515.47,unknown_male18.jpg
 3,24,2,1, 1, 3,1,1, 6,4,1,1,451.22,unknown_male06.jpg
 3,24,2,1, 1, 4,1,1,19,1,1,1,547.18,unknown_male19.jpg
 3,24,2,1, 1, 5,1,2,11,3,2,1,715.20,unknown_female11.jpg
 3,24,2,1, 1, 6,1,2,20,1,2,1,491.17,unknown_female20.jpg
 3,24,2,1, 1, 7,1,1, 4,1,1,1,515.16,unknown_male04.jpg
 3,24,2,1, 1, 8,1,1,14,3,1,1,506.70,unknown_male14.jpg
 3,24,2,1, 1, 9,1,2, 7,4,2,1,466.15,unknown_female07.jpg
 3,24,2,1, 1,10,1,2, 3,3,2,1,458.13,unknown_female03.jpg
 3,24,2,1, 1,11,1,1, 7,3,1,1,403.08,unknown_male07.jpg
 3,24,2,1, 1,12,1,1,21,2,1,1,426.80,unknown_male21.jpg
 3,24,2,1, 1,13,1,1, 9,4,1,1,427.06,unknown_male09.jpg
 3,24,2,1, 1,14,1,2,13,3,2,1,426.08,unknown_female13.jpg
 3,24,2,1, 1,15,1,2,15,1,2,1,578.06,unknown_female15.jpg
 3,24,2,1, 1,16,1,1,11,3,1,1,515.05,unknown_male11.jpg
 3,24,2,1, 1,17,1,2,23,2,2,1,651.03,unknown_female23.jpg
 3,24,2,1, 1,18,1,1,17,4,1,1,418.97,unknown_male17.jpg
 3,24,2,1, 1,19,1,2, 5,1,2,1,506.00,unknown_female05.jpg
 3,24,2,1, 1,20,1,2, 9,2,2,1,458.95,unknown_female09.jpg
 3,24,2,1, 1,21,1,2,19,2,2,1,418.93,unknown_female19.jpg
 3,24,2,1, 1,22,1,1,12,2,2,2,426.93,unknown_male12.jpg
 3,24,2,1, 1,23,1,2,16,4,2,1,417.97,unknown_female16.jpg
 3,24,2,1, 1,24,1,1,24,2,1,1,514.90,unknown_male24.jpg
 3,24,2,1, 2, 1,1,2,23,2,2,1,602.94,unknown_female23.jpg
 3,24,2,1, 2, 2,1,1,19,1,1,1,474.85,unknown_male19.jpg
 3,24,2,1, 2, 3,1,1, 6,4,1,1,458.82,unknown_male06.jpg
 3,24,2,1, 2, 4,1,1, 4,1,1,1,409.86,unknown_male04.jpg
 3,24,2,1, 2, 5,1,2,15,1,2,1,458.80,unknown_female15.jpg
 3,24,2,1, 2, 6,1,2,20,1,2,1,489.83,unknown_female20.jpg
 3,24,2,1, 2, 7,1,1,12,2,1,1,458.80,unknown_male12.jpg
 3,24,2,1, 2, 8,1,2, 9,2,2,1,538.81,unknown_female09.jpg
 3,24,2,1, 2, 9,1,2,19,2,2,1,546.75,unknown_female19.jpg
 3,24,2,1, 2,10,1,2,13,3,2,1,538.78,unknown_female13.jpg
 3,24,2,1, 2,11,1,1,11,3,1,1,634.68,unknown_male11.jpg
 3,24,2,1, 2,12,1,2, 5,1,2,1,602.74,unknown_female05.jpg
 3,24,2,1, 2,13,1,1,24,2,1,1,538.69,unknown_male24.jpg
 3,24,2,1, 2,14,1,1,21,2,1,1,554.71,unknown_male21.jpg
 3,24,2,1, 2,15,1,1,14,3,1,1,458.66,unknown_male14.jpg
 3,24,2,1, 2,16,1,2, 7,4,2,1,594.64,unknown_female07.jpg
 3,24,2,1, 2,17,1,1,18,1,1,1,650.67,unknown_male18.jpg
 3,24,2,1, 2,18,1,1,17,4,1,1,626.62,unknown_male17.jpg
 3,24,2,1, 2,19,1,2,11,3,2,1,514.61,unknown_female11.jpg
 3,24,2,1, 2,20,1,2, 3,3,2,1,706.59,unknown_female03.jpg
 3,24,2,1, 2,21,1,2,16,4,2,1,578.59,unknown_female16.jpg
 3,24,2,1, 2,22,1,2,12,4,2,1,602.62,unknown_female12.jpg
 3,24,2,1, 2,23,1,1, 9,4,1,1,450.55,unknown_male09.jpg
 3,24,2,1, 2,24,1,1, 7,3,1,1,417.61,unknown_male07.jpg
 3,24,2,1, 3, 1,1,2,19,2,2,1,539.42,unknown_female19.jpg
 3,24,2,1, 3, 2,1,1,11,3,1,1,507.36,unknown_male11.jpg
 3,24,2,1, 3, 3,1,2,20,1,2,1,547.33,unknown_female20.jpg
 3,24,2,1, 3, 4,1,1, 7,3,1,1,467.38,unknown_male07.jpg
 3,24,2,1, 3, 5,1,1,18,1,1,1,507.35,unknown_male18.jpg
 3,24,2,1, 3, 6,1,1, 4,1,1,1,442.35,unknown_male04.jpg
 3,24,2,1, 3, 7,1,1,14,3,1,1,411.32,unknown_male14.jpg
 3,24,2,1, 3, 8,1,1, 6,4,1,1,386.33,unknown_male06.jpg
 3,24,2,1, 3, 9,1,2, 3,3,2,1,515.25,unknown_female03.jpg
 3,24,2,1, 3,10,1,2,12,4,2,1,595.28,unknown_female12.jpg
 3,24,2,1, 3,11,1,2, 9,2,2,1,507.25,unknown_female09.jpg
 3,24,2,1, 3,12,1,1,19,1,1,1,410.25,unknown_male19.jpg
 3,24,2,1, 3,13,1,1,12,2,1,1,386.26,unknown_male12.jpg
 3,24,2,1, 3,14,1,2,16,4,2,1,459.18,unknown_female16.jpg
 3,24,2,1, 3,15,1,2, 7,4,2,1,555.18,unknown_female07.jpg
 3,24,2,1, 3,16,1,1,17,4,2,2,787.22,unknown_male17.jpg
 3,24,2,1, 3,17,1,1, 9,4,1,1,867.16,unknown_male09.jpg
 3,24,2,1, 3,18,1,2,11,3,2,1,531.13,unknown_female11.jpg
 3,24,2,1, 3,19,1,1,21,2,1,1,562.17,unknown_male21.jpg
 3,24,2,1, 3,20,1,2,15,1,2,1,546.17,unknown_female15.jpg
 3,24,2,1, 3,21,1,1,24,2,1,1,498.16,unknown_male24.jpg
 3,24,2,1, 3,22,1,2, 5,1,2,1,555.07,unknown_female05.jpg
 3,24,2,1, 3,23,1,2,13,3,2,1,483.07,unknown_female13.jpg
 3,24,2,1, 3,24,1,2,23,2,2,1,587.05,unknown_female23.jpg
 3,24,2,1, 4, 1,1,2,23,2,2,1,509.92,unknown_female23.jpg
 3,24,2,1, 4, 2,1,1, 6,4,1,1,550.05,unknown_male06.jpg
 3,24,2,1, 4, 3,1,1,19,1,1,1,949.94,unknown_male19.jpg
 3,24,2,1, 4, 4,1,2,11,3,2,1,484.99,unknown_female11.jpg
 3,24,2,1, 4, 5,1,1,17,4,1,1,477.92,unknown_male17.jpg
 3,24,2,1, 4, 6,1,1,12,2,1,1,469.91,unknown_male12.jpg
 3,24,2,1, 4, 7,1,2, 5,1,2,1,485.88,unknown_female05.jpg
 3,24,2,1, 4, 8,1,2,15,1,2,1,605.87,unknown_female15.jpg
 3,24,2,1, 4, 9,1,2,12,4,2,1,413.90,unknown_female12.jpg
 3,24,2,1, 4,10,1,1, 4,1,1,1,429.87,unknown_male04.jpg
 3,24,2,1, 4,11,1,1, 9,4,1,1,525.83,unknown_male09.jpg
 3,24,2,1, 4,12,1,1,18,1,1,1,452.89,unknown_male18.jpg
 3,24,2,1, 4,13,1,2, 3,3,2,1,717.85,unknown_female03.jpg
 3,24,2,1, 4,14,1,1,21,2,1,1,509.83,unknown_male21.jpg
 3,24,2,1, 4,15,1,1, 7,3,1,1,700.76,unknown_male07.jpg
 3,24,2,1, 4,16,1,2, 7,4,2,1,533.80,unknown_female07.jpg
 3,24,2,1, 4,17,1,1,11,3,1,1,773.75,unknown_male11.jpg
 3,24,2,1, 4,18,1,1,14,3,1,1,549.74,unknown_male14.jpg
 3,24,2,1, 4,19,1,2,20,1,2,1,549.74,unknown_female20.jpg
 3,24,2,1, 4,20,1,2,16,4,2,1,541.73,unknown_female16.jpg
 3,24,2,1, 4,21,1,2,19,2,2,1,501.76,unknown_female19.jpg
 3,24,2,1, 4,22,1,2,13,3,2,1,556.74,unknown_female13.jpg
 3,24,2,1, 4,23,1,1,24,2,1,1,468.74,unknown_male24.jpg
 3,24,2,1, 4,24,1,2, 9,2,2,1,669.68,unknown_female09.jpg
 3,24,2,1, 5, 1,1,1, 9,4,1,1,577.29,unknown_male09.jpg
 3,24,2,1, 5, 2,1,2,11,3,2,1,473.25,unknown_female11.jpg
 3,24,2,1, 5, 3,1,1,24,2,1,1,416.31,unknown_male24.jpg
 3,24,2,1, 5, 4,1,1,19,1,1,1,480.28,unknown_male19.jpg
 3,24,2,1, 5, 5,1,1, 4,1,1,1,441.25,unknown_male04.jpg
 3,24,2,1, 5, 6,1,1,12,2,1,1,401.20,unknown_male12.jpg
 3,24,2,1, 5, 7,1,1,18,1,1,1,433.21,unknown_male18.jpg
 3,24,2,1, 5, 8,1,2,13,3,2,1,841.19,unknown_female13.jpg
 3,24,2,1, 5, 9,1,2,15,1,2,1,609.21,unknown_female15.jpg
 3,24,2,1, 5,10,1,2, 7,4,2,1,537.16,unknown_female07.jpg
 3,24,2,1, 5,11,1,2,12,4,2,1,456.19,unknown_female12.jpg
 3,24,2,1, 5,12,1,1,17,4,1,1,425.14,unknown_male17.jpg
 3,24,2,1, 5,13,1,2,20,1,2,1,537.13,unknown_female20.jpg
 3,24,2,1, 5,14,1,2,19,2,2,1,512.17,unknown_female19.jpg
 3,24,2,1, 5,15,1,2, 9,2,2,1,672.13,unknown_female09.jpg
 3,24,2,1, 5,16,1,2, 5,1,2,1,425.07,unknown_female05.jpg
 3,24,2,1, 5,17,1,1, 6,4,1,1,720.03,unknown_male06.jpg
 3,24,2,1, 5,18,1,1, 7,3,1,1,992.10,unknown_male07.jpg
 3,24,2,1, 5,19,1,2,16,4,2,1,585.03,unknown_female16.jpg
 3,24,2,1, 5,20,1,2,23,2,2,1,497.02,unknown_female23.jpg
 3,24,2,1, 5,21,1,2, 3,3,2,1,416.06,unknown_female03.jpg
 3,24,2,1, 5,22,1,1,14,3,1,1,400.99,unknown_male14.jpg
 3,24,2,1, 5,23,1,1,11,3,1,1,697.02,unknown_male11.jpg
 3,24,2,1, 5,24,1,1,21,2,1,1,457.01,unknown_male21.jpg
 3,24,2,1, 6, 1,1,2,11,3,2,1,532.59,unknown_female11.jpg
 3,24,2,1, 6, 2,1,1,14,3,1,1,483.63,unknown_male14.jpg
 3,24,2,1, 6, 3,1,1, 6,4,1,1,492.57,unknown_male06.jpg
 3,24,2,1, 6, 4,1,1,21,2,1,1,411.58,unknown_male21.jpg
 3,24,2,1, 6, 5,1,2,19,2,2,1,772.53,unknown_female19.jpg
 3,24,2,1, 6, 6,1,1,17,4,1,1,484.53,unknown_male17.jpg
 3,24,2,1, 6, 7,1,1,19,1,1,1,499.57,unknown_male19.jpg
 3,24,2,1, 6, 8,1,2,12,4,2,1,564.50,unknown_female12.jpg
 3,24,2,1, 6, 9,1,1, 7,3,1,1,572.49,unknown_male07.jpg
 3,24,2,1, 6,10,1,1,12,2,1,1,564.47,unknown_male12.jpg
 3,24,2,1, 6,11,1,2,13,3,2,1,547.50,unknown_female13.jpg
 3,24,2,1, 6,12,1,1, 4,1,1,1,476.44,unknown_male04.jpg
 3,24,2,1, 6,13,1,2,23,2,2,1,516.42,unknown_female23.jpg
 3,24,2,1, 6,14,1,2, 5,1,2,1,572.43,unknown_female05.jpg
 3,24,2,1, 6,15,1,2,15,1,2,1,388.36,unknown_female15.jpg
 3,24,2,1, 6,16,1,2,16,4,2,1,419.43,unknown_female16.jpg
 3,24,2,1, 6,17,1,1,18,1,2,2,444.37,unknown_male18.jpg
 3,24,2,1, 6,18,1,1,24,2,1,1,588.37,unknown_male24.jpg
 3,24,2,1, 6,19,1,2, 9,2,2,1,524.34,unknown_female09.jpg
 3,24,2,1, 6,20,1,1,11,3,1,1,523.38,unknown_male11.jpg
 3,24,2,1, 6,21,1,2,20,1,2,1,484.36,unknown_female20.jpg
 3,24,2,1, 6,22,1,1, 9,4,1,1,380.30,unknown_male09.jpg
 3,24,2,1, 6,23,1,2, 7,4,2,1,507.37,unknown_female07.jpg
 3,24,2,1, 6,24,1,2, 3,3,2,1,539.34,unknown_female03.jpg
 3,24,2,1, 7, 1,1,2,16,4,2,1,988.83,unknown_female16.jpg
 3,24,2,1, 7, 2,1,2, 7,4,2,1,468.77,unknown_female07.jpg
 3,24,2,1, 7, 3,1,1,14,3,1,1,427.81,unknown_male14.jpg
 3,24,2,1, 7, 4,1,1,12,2,1,1,508.79,unknown_male12.jpg
 3,24,2,1, 7, 5,1,1,17,4,1,1,396.70,unknown_male17.jpg
 3,24,2,1, 7, 6,1,1,19,1,1,1,540.76,unknown_male19.jpg
 3,24,2,1, 7, 7,1,2,15,1,2,1,652.71,unknown_female15.jpg
 3,24,2,1, 7, 8,1,1, 6,4,1,1,556.69,unknown_male06.jpg
 3,24,2,1, 7, 9,1,2,13,3,2,1,524.67,unknown_female13.jpg
 3,24,2,1, 7,10,1,2,19,2,2,1,571.73,unknown_female19.jpg
 3,24,2,1, 7,11,1,2,12,4,2,1,524.65,unknown_female12.jpg
 3,24,2,1, 7,12,1,1, 7,3,1,1,412.68,unknown_male07.jpg
 3,24,2,1, 7,13,1,2, 9,2,2,1,443.68,unknown_female09.jpg
 3,24,2,1, 7,14,1,2, 3,3,2,1,435.67,unknown_female03.jpg
 3,24,2,1, 7,15,1,2, 5,1,2,1,508.63,unknown_female05.jpg
 3,24,2,1, 7,16,1,1,18,1,1,1,420.59,unknown_male18.jpg
 3,24,2,1, 7,17,1,1,21,2,1,1,828.56,unknown_male21.jpg
 3,24,2,1, 7,18,1,1,11,3,1,1,460.56,unknown_male11.jpg
 3,24,2,1, 7,19,1,1, 4,1,1,1,420.58,unknown_male04.jpg
 3,24,2,1, 7,20,1,2,11,3,2,1,564.53,unknown_female11.jpg
 3,24,2,1, 7,21,1,1, 9,4,1,1,484.50,unknown_male09.jpg
 3,24,2,1, 7,22,1,2,20,1,2,1,635.57,unknown_female20.jpg
 3,24,2,1, 7,23,1,1,24,2,1,1,395.54,unknown_male24.jpg
 3,24,2,1, 7,24,1,2,23,2,2,1,452.52,unknown_female23.jpg
 3,24,2,1, 8, 1,1,2,19,2,2,1,509.01,unknown_female19.jpg
 3,24,2,1, 8, 2,1,2, 3,3,2,1,460.97,unknown_female03.jpg
 3,24,2,1, 8, 3,1,1,18,1,1,1,476.99,unknown_male18.jpg
 3,24,2,1, 8, 4,1,1,12,2,1,1,540.01,unknown_male12.jpg
 3,24,2,1, 8, 5,1,2, 9,2,2,1,460.94,unknown_female09.jpg
 3,24,2,1, 8, 6,1,1,21,2,1,1,475.99,unknown_male21.jpg
 3,24,2,1, 8, 7,1,1,14,3,1,1,412.91,unknown_male14.jpg
 3,24,2,1, 8, 8,1,1, 9,4,1,1,404.90,unknown_male09.jpg
 3,24,2,1, 8, 9,1,2,15,1,2,1,532.89,unknown_female15.jpg
 3,24,2,1, 8,10,1,2,11,3,2,1,500.86,unknown_female11.jpg
 3,24,2,1, 8,11,1,2, 5,1,2,1,652.86,unknown_female05.jpg
 3,24,2,1, 8,12,1,1,17,4,1,1,451.90,unknown_male17.jpg
 3,24,2,1, 8,13,1,1,11,3,1,1,444.81,unknown_male11.jpg
 3,24,2,1, 8,14,1,1, 4,1,1,1,475.91,unknown_male04.jpg
 3,24,2,1, 8,15,1,1, 7,3,1,1,515.86,unknown_male07.jpg
 3,24,2,1, 8,16,1,2,20,1,2,1,779.80,unknown_female20.jpg
 3,24,2,1, 8,17,1,2, 7,4,2,1,524.76,unknown_female07.jpg
 3,24,2,1, 8,18,1,1, 6,4,1,1,523.80,unknown_male06.jpg
 3,24,2,1, 8,19,1,2,23,2,2,1,596.77,unknown_female23.jpg
 3,24,2,1, 8,20,1,1,19,1,1,1,435.78,unknown_male19.jpg
 3,24,2,1, 8,21,1,1,24,2,1,1,484.62,unknown_male24.jpg
 3,24,2,1, 8,22,1,2,16,4,2,1,484.70,unknown_female16.jpg
 3,24,2,1, 8,23,1,2,12,4,2,1,483.75,unknown_female12.jpg
 3,24,2,1, 8,24,1,2,13,3,2,1,419.73,unknown_female13.jpg
 4,23,2,2, 1, 1,1,2, 9,2,2,1,1308.25,famous_female09.jpg
 4,23,2,2, 1, 2,1,2, 4,2,2,1,811.57,famous_female04.jpg
 4,23,2,2, 1, 3,1,2, 2,3,2,1,667.40,famous_female02.jpg
 4,23,2,2, 1, 4,1,2, 7,1,2,1,707.02,famous_female07.jpg
 4,23,2,2, 1, 5,1,2,14,2,2,1,619.46,famous_female14.jpg
 4,23,2,2, 1, 6,1,2,16,4,2,1,617.35,famous_female16.jpg
 4,23,2,2, 1, 7,1,2,20,1,2,1,634.61,famous_female20.jpg
 4,23,2,2, 1, 8,1,1, 5,1,1,1,778.67,famous_male05.jpg
 4,23,2,2, 1, 9,1,1,13,1,1,1,570.66,famous_male13.jpg
 4,23,2,2, 1,10,1,2,18,4,2,1,610.61,famous_female18.jpg
 4,23,2,2, 1,11,1,1,17,3,1,1,650.59,famous_male17.jpg
 4,23,2,2, 1,12,1,1,20,4,1,1,546.61,famous_male20.jpg
 4,23,2,2, 1,13,1,1,19,2,1,1,570.57,famous_male19.jpg
 4,23,2,2, 1,14,1,1, 9,3,1,1,594.56,famous_male09.jpg
 4,23,2,2, 1,15,1,1, 7,4,1,1,482.54,famous_male07.jpg
 4,23,2,2, 1,16,1,2,22,1,2,1,682.53,famous_female22.jpg
 4,23,2,2, 1,17,1,2, 5,4,2,1,594.55,famous_female05.jpg
 4,23,2,2, 1,18,1,1,16,1,1,1,834.57,famous_male16.jpg
 4,23,2,2, 1,19,1,1,11,4,1,1,578.58,famous_male11.jpg
 4,23,2,2, 1,20,1,1, 1,2,1,1,514.51,famous_male01.jpg
 4,23,2,2, 1,21,1,1,24,3,1,1,442.49,famous_male24.jpg
 4,23,2,2, 1,22,1,2,21,3,1,2,738.47,famous_female21.jpg
 4,23,2,2, 1,23,1,1, 6,2,1,1,1506.51,famous_male06.jpg
 4,23,2,2, 1,24,1,2,24,3,2,1,578.42,famous_female24.jpg
 4,23,2,2, 2, 1,1,1,13,1,1,1,523.37,famous_male13.jpg
 4,23,2,2, 2, 2,1,2,16,4,2,1,691.35,famous_female16.jpg
 4,23,2,2, 2, 3,1,2, 4,2,2,1,571.34,famous_female04.jpg
 4,23,2,2, 2, 4,1,2, 2,3,2,1,467.34,famous_female02.jpg
 4,23,2,2, 2, 5,1,2,21,3,2,1,619.45,famous_female21.jpg
 4,23,2,2, 2, 6,1,2,22,1,2,1,507.43,famous_female22.jpg
 4,23,2,2, 2, 7,1,1, 9,3,1,1,507.28,famous_male09.jpg
 4,23,2,2, 2, 8,1,1, 7,4,1,1,475.30,famous_male07.jpg
 4,23,2,2, 2, 9,1,2, 7,1,2,1,803.28,famous_female07.jpg
 4,23,2,2, 2,10,1,2,14,2,2,1,531.28,famous_female14.jpg
 4,23,2,2, 2,11,1,2,24,3,2,1,851.26,famous_female24.jpg
 4,23,2,2, 2,12,1,2, 9,2,2,1,635.21,famous_female09.jpg
 4,23,2,2, 2,13,1,2,20,1,2,1,491.23,famous_female20.jpg
 4,23,2,2, 2,14,1,1,24,3,1,1,531.26,famous_male24.jpg
 4,23,2,2, 2,15,1,1,19,2,1,1,427.18,famous_male19.jpg
 4,23,2,2, 2,16,1,1, 1,2,1,1,491.16,famous_male01.jpg
 4,23,2,2, 2,17,1,1, 6,2,1,1,443.17,famous_male06.jpg
 4,23,2,2, 2,18,1,1, 5,1,1,1,723.11,famous_male05.jpg
 4,23,2,2, 2,19,1,1,20,4,1,1,851.14,famous_male20.jpg
 4,23,2,2, 2,20,1,2, 5,4,2,1,531.15,famous_female05.jpg
 4,23,2,2, 2,21,1,1,11,4,1,1,667.17,famous_male11.jpg
 4,23,2,2, 2,22,1,2,18,4,2,1,547.15,famous_female18.jpg
 4,23,2,2, 2,23,1,1,16,1,1,1,539.09,famous_male16.jpg
 4,23,2,2, 2,24,1,1,17,3,1,1,555.06,famous_male17.jpg
 4,23,2,2, 3, 1,1,2, 9,2,2,1,477.37,famous_female09.jpg
 4,23,2,2, 3, 2,1,1,24,3,1,1,525.35,famous_male24.jpg
 4,23,2,2, 3, 3,1,1, 6,2,1,1,429.36,famous_male06.jpg
 4,23,2,2, 3, 4,1,2,21,3,2,1,821.35,famous_female21.jpg
 4,23,2,2, 3, 5,1,1,16,1,1,1,421.33,famous_male16.jpg
 4,23,2,2, 3, 6,1,2,16,4,2,1,645.32,famous_female16.jpg
 4,23,2,2, 3, 7,1,1, 7,4,1,1,477.28,famous_male07.jpg
 4,23,2,2, 3, 8,1,1,19,2,1,1,525.30,famous_male19.jpg
 4,23,2,2, 3, 9,1,1,17,3,1,1,501.28,famous_male17.jpg
 4,23,2,2, 3,10,1,2,20,1,2,1,653.27,famous_female20.jpg
 4,23,2,2, 3,11,1,2, 2,3,2,1,469.23,famous_female02.jpg
 4,23,2,2, 3,12,1,1, 9,3,1,1,509.24,famous_male09.jpg
 4,23,2,2, 3,13,1,2, 4,2,2,1,613.17,famous_female04.jpg
 4,23,2,2, 3,14,1,1, 5,1,1,1,573.24,famous_male05.jpg
 4,23,2,2, 3,15,1,2,18,4,2,1,725.18,famous_female18.jpg
 4,23,2,2, 3,16,1,2, 5,4,2,1,517.19,famous_female05.jpg
 4,23,2,2, 3,17,1,2,24,3,2,1,421.18,famous_female24.jpg
 4,23,2,2, 3,18,1,2,22,1,2,1,405.17,famous_female22.jpg
 4,23,2,2, 3,19,1,2, 7,1,2,1,469.12,famous_female07.jpg
 4,23,2,2, 3,20,1,1,20,4,1,1,477.04,famous_male20.jpg
 4,23,2,2, 3,21,1,1,11,4,1,1,549.11,famous_male11.jpg
 4,23,2,2, 3,22,1,1, 1,2,1,1,989.15,famous_male01.jpg
 4,23,2,2, 3,23,1,1,13,1,1,1,509.09,famous_male13.jpg
 4,23,2,2, 3,24,1,2,14,2,2,1,461.09,famous_female14.jpg
 4,23,2,2, 4, 1,1,1, 9,3,1,1,480.55,famous_male09.jpg
 4,23,2,2, 4, 2,1,1,13,1,1,1,544.57,famous_male13.jpg
 4,23,2,2, 4, 3,1,2,24,3,2,1,504.53,famous_female24.jpg
 4,23,2,2, 4, 4,1,1,17,3,1,1,552.56,famous_male17.jpg
 4,23,2,2, 4, 5,1,2,22,1,2,1,600.56,famous_female22.jpg
 4,23,2,2, 4, 6,1,2, 9,2,2,1,600.56,famous_female09.jpg
 4,23,2,2, 4, 7,1,2,20,1,2,1,472.47,famous_female20.jpg
 4,23,2,2, 4, 8,1,1,11,4,1,1,440.49,famous_male11.jpg
 4,23,2,2, 4, 9,1,2,16,4,2,1,528.44,famous_female16.jpg
 4,23,2,2, 4,10,1,1,19,2,1,1,392.46,famous_male19.jpg
 4,23,2,2, 4,11,1,2,18,4,2,1,520.42,famous_female18.jpg
 4,23,2,2, 4,12,1,1, 6,2,1,1,776.42,famous_male06.jpg
 4,23,2,2, 4,13,1,2,14,2,2,1,368.42,famous_female14.jpg
 4,23,2,2, 4,14,1,1, 5,1,1,1,512.38,famous_male05.jpg
 4,23,2,2, 4,15,1,2, 7,1,2,1,488.42,famous_female07.jpg
 4,23,2,2, 4,16,1,1, 1,2,1,1,560.38,famous_male01.jpg
 4,23,2,2, 4,17,1,2, 4,2,2,1,400.34,famous_female04.jpg
 4,23,2,2, 4,18,1,1,16,1,1,1,408.32,famous_male16.jpg
 4,23,2,2, 4,19,1,2,21,3,2,1,768.33,famous_female21.jpg
 4,23,2,2, 4,20,1,1, 7,4,1,1,528.30,famous_male07.jpg
 4,23,2,2, 4,21,1,2, 2,3,2,1,888.31,famous_female02.jpg
 4,23,2,2, 4,22,1,2, 5,4,2,1,576.29,famous_female05.jpg
 4,23,2,2, 4,23,1,1,20,4,1,1,984.26,famous_male20.jpg
 4,23,2,2, 4,24,1,1,24,3,1,1,432.27,famous_male24.jpg
 4,23,2,2, 5, 1,1,2,14,2,2,1,585.61,famous_female14.jpg
 4,23,2,2, 5, 2,1,2, 9,2,2,1,473.56,famous_female09.jpg
 4,23,2,2, 5, 3,1,1,13,1,1,1,481.54,famous_male13.jpg
 4,23,2,2, 5, 4,1,2,22,1,2,1,593.66,famous_female22.jpg
 4,23,2,2, 5, 5,1,2, 4,2,2,1,593.52,famous_female04.jpg
 4,23,2,2, 5, 6,1,1, 9,3,1,1,537.50,famous_male09.jpg
 4,23,2,2, 5, 7,1,2, 5,4,2,1,753.42,famous_female05.jpg
 4,23,2,2, 5, 8,1,1, 5,1,1,1,521.51,famous_male05.jpg
 4,23,2,2, 5, 9,1,2, 2,3,2,1,729.50,famous_female02.jpg
 4,23,2,2, 5,10,1,1, 6,2,1,1,585.48,famous_male06.jpg
 4,23,2,2, 5,11,1,2,20,1,2,1,689.44,famous_female20.jpg
 4,23,2,2, 5,12,1,1,24,3,1,1,489.46,famous_male24.jpg
 4,23,2,2, 5,13,1,1,16,1,1,1,481.42,famous_male16.jpg
 4,23,2,2, 5,14,1,2, 7,1,2,1,425.42,famous_female07.jpg
 4,23,2,2, 5,15,1,2,18,4,2,1,497.39,famous_female18.jpg
 4,23,2,2, 5,16,1,1, 1,2,1,1,537.40,famous_male01.jpg
 4,23,2,2, 5,17,1,1,17,3,1,1,609.42,famous_male17.jpg
 4,23,2,2, 5,18,1,2,24,3,2,1,609.35,famous_female24.jpg
 4,23,2,2, 5,19,1,2,21,3,2,1,729.25,famous_female21.jpg
 4,23,2,2, 5,20,1,1,20,4,1,1,513.35,famous_male20.jpg
 4,23,2,2, 5,21,1,1, 7,4,1,1,817.33,famous_male07.jpg
 4,23,2,2, 5,22,1,1,11,4,1,1,665.33,famous_male11.jpg
 4,23,2,2, 5,23,1,2,16,4,2,1,625.30,famous_female16.jpg
 4,23,2,2, 5,24,1,1,19,2,1,1,489.33,famous_male19.jpg
 4,23,2,2, 6, 1,1,1,19,2,1,1,516.62,famous_male19.jpg
 4,23,2,2, 6, 2,1,2, 4,2,2,1,516.57,famous_female04.jpg
 4,23,2,2, 6, 3,1,2,24,3,2,1,1100.67,famous_female24.jpg
 4,23,2,2, 6, 4,1,1, 1,2,1,1,428.58,famous_male01.jpg
 4,23,2,2, 6, 5,1,1,17,3,1,1,468.52,famous_male17.jpg
 4,23,2,2, 6, 6,1,1, 9,3,1,1,436.52,famous_male09.jpg
 4,23,2,2, 6, 7,1,2, 5,4,2,1,508.53,famous_female05.jpg
 4,23,2,2, 6, 8,1,1,11,4,1,1,308.52,famous_male11.jpg
 4,23,2,2, 6, 9,1,2, 7,1,2,1,556.52,famous_female07.jpg
 4,23,2,2, 6,10,1,2,22,1,2,1,524.50,famous_female22.jpg
 4,23,2,2, 6,11,1,1, 5,1,1,1,500.48,famous_male05.jpg
 4,23,2,2, 6,12,1,1,24,3,1,1,1196.45,famous_male24.jpg
 4,23,2,2, 6,13,1,1, 7,4,1,1,436.45,famous_male07.jpg
 4,23,2,2, 6,14,1,2,21,3,2,1,628.44,famous_female21.jpg
 4,23,2,2, 6,15,1,2, 9,2,2,1,580.41,famous_female09.jpg
 4,23,2,2, 6,16,1,2,20,1,2,1,588.37,famous_female20.jpg
 4,23,2,2, 6,17,1,2,14,2,2,1,444.37,famous_female14.jpg
 4,23,2,2, 6,18,1,1,20,4,1,1,604.39,famous_male20.jpg
 4,23,2,2, 6,19,1,1,13,1,1,1,660.35,famous_male13.jpg
 4,23,2,2, 6,20,1,1,16,1,2,2,756.36,famous_male16.jpg
 4,23,2,2, 6,21,1,2, 2,3,2,1,524.32,famous_female02.jpg
 4,23,2,2, 6,22,1,2,16,4,2,1,452.37,famous_female16.jpg
 4,23,2,2, 6,23,1,2,18,4,2,1,428.30,famous_female18.jpg
 4,23,2,2, 6,24,1,1, 6,2,1,1,580.28,famous_male06.jpg
 4,23,2,2, 7, 1,1,2,22,1,2,1,559.93,famous_female22.jpg
 4,23,2,2, 7, 2,1,1, 9,3,1,1,447.94,famous_male09.jpg
 4,23,2,2, 7, 3,1,1, 1,2,1,1,495.92,famous_male01.jpg
 4,23,2,2, 7, 4,1,2,24,3,2,1,599.91,famous_female24.jpg
 4,23,2,2, 7, 5,1,2,14,2,2,1,623.89,famous_female14.jpg
 4,23,2,2, 7, 6,1,1,11,4,1,1,671.88,famous_male11.jpg
 4,23,2,2, 7, 7,1,2, 7,1,2,1,879.85,famous_female07.jpg
 4,23,2,2, 7, 8,1,1, 5,1,1,1,471.92,famous_male05.jpg
 4,23,2,2, 7, 9,1,1,13,1,1,1,519.84,famous_male13.jpg
 4,23,2,2, 7,10,1,2,16,4,2,1,551.81,famous_female16.jpg
 4,23,2,2, 7,11,1,2, 2,3,2,1,375.85,famous_female02.jpg
 4,23,2,2, 7,12,1,1,24,3,1,1,399.81,famous_male24.jpg
 4,23,2,2, 7,13,1,1,20,4,1,1,487.77,famous_male20.jpg
 4,23,2,2, 7,14,1,1,17,3,1,1,463.78,famous_male17.jpg
 4,23,2,2, 7,15,1,2, 4,2,2,1,607.74,famous_female04.jpg
 4,23,2,2, 7,16,1,1, 7,4,1,1,431.75,famous_male07.jpg
 4,23,2,2, 7,17,1,2, 5,4,2,1,671.74,famous_female05.jpg
 4,23,2,2, 7,18,1,2,20,1,2,1,583.73,famous_female20.jpg
 4,23,2,2, 7,19,1,1,16,1,1,1,487.68,famous_male16.jpg
 4,23,2,2, 7,20,1,2,21,3,2,1,887.67,famous_female21.jpg
 4,23,2,2, 7,21,1,1,19,2,1,1,383.71,famous_male19.jpg
 4,23,2,2, 7,22,1,2, 9,2,2,1,543.64,famous_female09.jpg
 4,23,2,2, 7,23,1,1, 6,2,1,1,575.66,famous_male06.jpg
 4,23,2,2, 7,24,1,2,18,4,2,1,807.61,famous_female18.jpg
 4,23,2,2, 8, 1,1,1, 6,2,1,1,617.99,famous_male06.jpg
 4,23,2,2, 8, 2,1,2, 7,1,2,1,481.13,famous_female07.jpg
 4,23,2,2, 8, 3,1,1, 7,4,1,1,545.96,famous_male07.jpg
 4,23,2,2, 8, 4,1,2,20,1,2,1,521.95,famous_female20.jpg
 4,23,2,2, 8, 5,1,2, 5,4,2,1,601.93,famous_female05.jpg
 4,23,2,2, 8, 6,1,1,16,1,1,1,457.92,famous_male16.jpg
 4,23,2,2, 8, 7,1,1,13,1,1,1,609.94,famous_male13.jpg
 4,23,2,2, 8, 8,1,1,11,4,1,1,529.99,famous_male11.jpg
 4,23,2,2, 8, 9,1,2,18,4,2,1,641.88,famous_female18.jpg
 4,23,2,2, 8,10,1,2,21,3,2,1,857.85,famous_female21.jpg
 4,23,2,2, 8,11,1,1, 1,2,1,1,665.88,famous_male01.jpg
 4,23,2,2, 8,12,1,2,14,2,2,1,657.85,famous_female14.jpg
 4,23,2,2, 8,13,1,2,22,1,2,1,673.85,famous_female22.jpg
 4,23,2,2, 8,14,1,1,17,3,1,1,577.83,famous_male17.jpg
 4,23,2,2, 8,15,1,2,16,4,2,1,697.82,famous_female16.jpg
 4,23,2,2, 8,16,1,2, 4,2,2,1,545.82,famous_female04.jpg
 4,23,2,2, 8,17,1,1,19,2,1,1,473.80,famous_male19.jpg
 4,23,2,2, 8,18,1,1, 5,1,1,1,489.91,famous_male05.jpg
 4,23,2,2, 8,19,1,2, 2,3,2,1,617.74,famous_female02.jpg
 4,23,2,2, 8,20,1,1,24,3,1,1,705.77,famous_male24.jpg
 4,23,2,2, 8,21,1,2,24,3,2,1,529.73,famous_female24.jpg
 4,23,2,2, 8,22,1,1, 9,3,1,1,617.75,famous_male09.jpg
 4,23,2,2, 8,23,1,2, 9,2,2,1,617.73,famous_female09.jpg
 4,23,2,2, 8,24,1,1,20,4,1,1,489.70,famous_male20.jpg
 5,23,1,1, 1, 1,1,2,20,3,2,1,601.44,unknown_female20.jpg
 5,23,1,1, 1, 2,1,1,20,1,1,1,656.66,unknown_male20.jpg
 5,23,1,1, 1, 3,1,2,21,4,2,1,496.54,unknown_female21.jpg
 5,23,1,1, 1, 4,1,1,11,2,1,1,456.57,unknown_male11.jpg
 5,23,1,1, 1, 5,1,2,22,4,2,1,432.55,unknown_female22.jpg
 5,23,1,1, 1, 6,1,1,21,1,1,1,560.50,unknown_male21.jpg
 5,23,1,1, 1, 7,1,1,15,3,1,1,544.54,unknown_male15.jpg
 5,23,1,1, 1, 8,1,1, 5,4,1,1,511.52,unknown_male05.jpg
 5,23,1,1, 1, 9,1,2, 1,2,2,1,552.46,unknown_female01.jpg
 5,23,1,1, 1,10,1,1,19,2,1,1,495.46,unknown_male19.jpg
 5,23,1,1, 1,11,1,2, 8,2,2,1,679.46,unknown_female08.jpg
 5,23,1,1, 1,12,1,1, 3,2,1,1,647.45,unknown_male03.jpg
 5,23,1,1, 1,13,1,2,19,4,2,1,447.36,unknown_female19.jpg
 5,23,1,1, 1,14,1,2, 9,1,2,1,512.45,unknown_female09.jpg
 5,23,1,1, 1,15,1,2,13,2,2,1,512.37,unknown_female13.jpg
 5,23,1,1, 1,16,1,2, 3,1,2,1,464.36,unknown_female03.jpg
 5,23,1,1, 1,17,1,1,17,4,1,1,424.35,unknown_male17.jpg
 5,23,1,1, 1,18,1,2,23,3,2,1,551.27,unknown_female23.jpg
 5,23,1,1, 1,19,1,1, 7,3,1,1,464.33,unknown_male07.jpg
 5,23,1,1, 1,20,1,1, 9,3,1,1,728.33,unknown_male09.jpg
 5,23,1,1, 1,21,1,1, 2,4,1,1,496.31,unknown_male02.jpg
 5,23,1,1, 1,22,1,2, 5,3,2,1,512.28,unknown_female05.jpg
 5,23,1,1, 1,23,1,1,23,1,1,1,607.19,unknown_male23.jpg
 5,23,1,1, 1,24,1,2, 2,1,2,1,584.28,unknown_female02.jpg
 5,23,1,1, 2, 1,1,2, 8,2,2,1,519.13,unknown_female08.jpg
 5,23,1,1, 2, 2,1,1,19,2,1,1,423.10,unknown_male19.jpg
 5,23,1,1, 2, 3,1,2,19,4,2,1,471.07,unknown_female19.jpg
 5,23,1,1, 2, 4,1,2, 3,1,2,1,511.09,unknown_female03.jpg
 5,23,1,1, 2, 5,1,1, 5,4,1,1,511.04,unknown_male05.jpg
 5,23,1,1, 2, 6,1,2, 1,2,2,1,471.06,unknown_female01.jpg
 5,23,1,1, 2, 7,1,1,17,4,1,1,431.07,unknown_male17.jpg
 5,23,1,1, 2, 8,1,1,15,3,1,1,687.02,unknown_male15.jpg
 5,23,1,1, 2, 9,1,2,23,3,2,1,631.00,unknown_female23.jpg
 5,23,1,1, 2,10,1,2, 5,3,2,1,655.02,unknown_female05.jpg
 5,23,1,1, 2,11,1,2,20,3,2,1,487.01,unknown_female20.jpg
 5,23,1,1, 2,12,1,1,23,1,1,1,639.00,unknown_male23.jpg
 5,23,1,1, 2,13,1,1, 9,3,1,1,574.97,unknown_male09.jpg
 5,23,1,1, 2,14,1,1,21,1,1,1,702.98,unknown_male21.jpg
 5,23,1,1, 2,15,1,1, 7,3,1,1,510.94,unknown_male07.jpg
 5,23,1,1, 2,16,1,2,13,2,2,1,422.91,unknown_female13.jpg
 5,23,1,1, 2,17,1,2,22,4,2,1,526.90,unknown_female22.jpg
 5,23,1,1, 2,18,1,2,21,4,2,1,486.91,unknown_female21.jpg
 5,23,1,1, 2,19,1,2, 2,1,2,1,678.93,unknown_female02.jpg
 5,23,1,1, 2,20,1,1,20,1,1,1,390.85,unknown_male20.jpg
 5,23,1,1, 2,21,1,1,11,2,1,1,406.85,unknown_male11.jpg
 5,23,1,1, 2,22,1,1, 2,4,1,1,438.86,unknown_male02.jpg
 5,23,1,1, 2,23,1,1, 3,2,1,1,454.81,unknown_male03.jpg
 5,23,1,1, 2,24,1,2, 9,1,2,1,381.70,unknown_female09.jpg
 5,23,1,1, 3, 1,1,1,17,4,1,1,596.53,unknown_male17.jpg
 5,23,1,1, 3, 2,1,2, 9,1,2,1,451.57,unknown_female09.jpg
 5,23,1,1, 3, 3,1,2, 3,1,2,1,684.50,unknown_female03.jpg
 5,23,1,1, 3, 4,1,1, 7,3,1,1,428.50,unknown_male07.jpg
 5,23,1,1, 3, 5,1,2, 2,1,2,1,492.46,unknown_female02.jpg
 5,23,1,1, 3, 6,1,1, 9,3,1,1,444.52,unknown_male09.jpg
 5,23,1,1, 3, 7,1,2, 8,2,2,1,436.44,unknown_female08.jpg
 5,23,1,1, 3, 8,1,2,13,2,2,1,396.41,unknown_female13.jpg
 5,23,1,1, 3, 9,1,1, 5,4,1,1,428.45,unknown_male05.jpg
 5,23,1,1, 3,10,1,2,22,4,2,1,467.33,unknown_female22.jpg
 5,23,1,1, 3,11,1,1,23,1,1,1,459.31,unknown_male23.jpg
 5,23,1,1, 3,12,1,2,20,3,2,1,403.30,unknown_female20.jpg
 5,23,1,1, 3,13,1,1,20,1,2,2,356.35,unknown_male20.jpg
 5,23,1,1, 3,14,1,2, 1,2,2,1,612.34,unknown_female01.jpg
 5,23,1,1, 3,15,1,1,11,2,1,1,1156.36,unknown_male11.jpg
 5,23,1,1, 3,16,1,1,21,1,1,1,492.31,unknown_male21.jpg
 5,23,1,1, 3,17,1,1,19,2,1,1,460.30,unknown_male19.jpg
 5,23,1,1, 3,18,1,2,21,4,2,1,476.31,unknown_female21.jpg
 5,23,1,1, 3,19,1,1, 3,2,1,1,491.21,unknown_male03.jpg
 5,23,1,1, 3,20,1,1, 2,4,1,1,596.28,unknown_male02.jpg
 5,23,1,1, 3,21,1,2, 5,3,2,1,500.31,unknown_female05.jpg
 5,23,1,1, 3,22,1,2,23,3,2,1,508.29,unknown_female23.jpg
 5,23,1,1, 3,23,1,1,15,3,1,1,636.24,unknown_male15.jpg
 5,23,1,1, 3,24,1,2,19,4,2,1,500.22,unknown_female19.jpg
 5,23,1,1, 4, 1,1,1, 7,3,1,1,435.91,unknown_male07.jpg
 5,23,1,1, 4, 2,1,2,19,4,2,1,410.82,unknown_female19.jpg
 5,23,1,1, 4, 3,1,1,20,1,1,1,435.92,unknown_male20.jpg
 5,23,1,1, 4, 4,1,1,17,4,1,1,659.83,unknown_male17.jpg
 5,23,1,1, 4, 5,1,1, 3,2,1,1,419.88,unknown_male03.jpg
 5,23,1,1, 4, 6,1,2,21,4,2,1,546.80,unknown_female21.jpg
 5,23,1,1, 4, 7,1,2,20,3,2,1,451.83,unknown_female20.jpg
 5,23,1,1, 4, 8,1,2, 1,2,2,1,443.82,unknown_female01.jpg
 5,23,1,1, 4, 9,1,1, 2,4,1,1,434.72,unknown_male02.jpg
 5,23,1,1, 4,10,1,1,11,2,1,1,651.79,unknown_male11.jpg
 5,23,1,1, 4,11,1,2, 2,1,2,1,507.80,unknown_female02.jpg
 5,23,1,1, 4,12,1,1, 5,4,1,1,466.82,unknown_male05.jpg
 5,23,1,1, 4,13,1,2,22,4,2,1,475.74,unknown_female22.jpg
 5,23,1,1, 4,14,1,1,19,2,1,1,450.70,unknown_male19.jpg
 5,23,1,1, 4,15,1,1,15,3,1,1,547.75,unknown_male15.jpg
 5,23,1,1, 4,16,1,1, 9,3,1,1,403.74,unknown_male09.jpg
 5,23,1,1, 4,17,1,1,21,1,1,1,395.70,unknown_male21.jpg
 5,23,1,1, 4,18,1,2, 5,3,2,1,467.61,unknown_female05.jpg
 5,23,1,1, 4,19,1,2, 3,1,2,1,475.69,unknown_female03.jpg
 5,23,1,1, 4,20,1,1,23,1,1,1,451.65,unknown_male23.jpg
 5,23,1,1, 4,21,1,2, 8,2,2,1,403.66,unknown_female08.jpg
 5,23,1,1, 4,22,1,2,13,2,2,1,411.69,unknown_female13.jpg
 5,23,1,1, 4,23,1,2, 9,1,2,1,723.69,unknown_female09.jpg
 5,23,1,1, 4,24,1,2,23,3,2,1,483.59,unknown_female23.jpg
 5,23,1,1, 5, 1,1,2,19,4,2,1,401.60,unknown_female19.jpg
 5,23,1,1, 5, 2,1,1,20,1,1,1,985.53,unknown_male20.jpg
 5,23,1,1, 5, 3,1,1,23,1,1,1,465.52,unknown_male23.jpg
 5,23,1,1, 5, 4,1,1, 7,3,1,1,513.47,unknown_male07.jpg
 5,23,1,1, 5, 5,1,2,13,2,2,1,496.39,unknown_female13.jpg
 5,23,1,1, 5, 6,1,1,11,2,1,1,473.49,unknown_male11.jpg
 5,23,1,1, 5, 7,1,2,23,3,2,1,521.44,unknown_female23.jpg
 5,23,1,1, 5, 8,1,2,20,3,2,1,921.41,unknown_female20.jpg
 5,23,1,1, 5, 9,1,2, 5,3,2,1,689.42,unknown_female05.jpg
 5,23,1,1, 5,10,1,2, 9,1,2,1,537.42,unknown_female09.jpg
 5,23,1,1, 5,11,1,2, 2,1,2,1,561.38,unknown_female02.jpg
 5,23,1,1, 5,12,1,2,21,4,2,1,361.37,unknown_female21.jpg
 5,23,1,1, 5,13,1,1,19,2,1,1,417.33,unknown_male19.jpg
 5,23,1,1, 5,14,1,2, 8,2,2,1,449.39,unknown_female08.jpg
 5,23,1,1, 5,15,1,2,22,4,2,1,425.33,unknown_female22.jpg
 5,23,1,1, 5,16,1,1,21,1,1,1,489.35,unknown_male21.jpg
 5,23,1,1, 5,17,1,1,15,3,1,1,584.24,unknown_male15.jpg
 5,23,1,1, 5,18,1,2, 3,1,2,1,465.34,unknown_female03.jpg
 5,23,1,1, 5,19,1,1, 9,3,1,1,449.34,unknown_male09.jpg
 5,23,1,1, 5,20,1,1, 3,2,1,1,425.28,unknown_male03.jpg
 5,23,1,1, 5,21,1,1, 2,4,1,1,417.32,unknown_male02.jpg
 5,23,1,1, 5,22,1,2, 1,2,2,1,481.25,unknown_female01.jpg
 5,23,1,1, 5,23,1,1, 5,4,1,1,545.28,unknown_male05.jpg
 5,23,1,1, 5,24,1,1,17,4,1,1,497.24,unknown_male17.jpg
 5,23,1,1, 6, 1,1,2,20,3,2,1,405.61,unknown_female20.jpg
 5,23,1,1, 6, 2,1,2, 3,1,2,1,421.52,unknown_female03.jpg
 5,23,1,1, 6, 3,1,2, 1,2,2,1,429.51,unknown_female01.jpg
 5,23,1,1, 6, 4,1,2, 8,2,2,1,397.49,unknown_female08.jpg
 5,23,1,1, 6, 5,1,2,21,4,2,1,444.37,unknown_female21.jpg
 5,23,1,1, 6, 6,1,2,22,4,2,1,493.46,unknown_female22.jpg
 5,23,1,1, 6, 7,1,1,17,4,2,2,461.60,unknown_male17.jpg
 5,23,1,1, 6, 8,1,2, 9,1,2,1,469.45,unknown_female09.jpg
 5,23,1,1, 6, 9,1,1, 7,3,1,1,724.37,unknown_male07.jpg
 5,23,1,1, 6,10,1,2,19,4,2,1,557.42,unknown_female19.jpg
 5,23,1,1, 6,11,1,2,23,3,2,1,476.35,unknown_female23.jpg
 5,23,1,1, 6,12,1,2, 5,3,2,1,461.42,unknown_female05.jpg
 5,23,1,1, 6,13,1,1,11,2,1,1,485.36,unknown_male11.jpg
 5,23,1,1, 6,14,1,1, 2,4,1,1,452.27,unknown_male02.jpg
 5,23,1,1, 6,15,1,1,20,1,1,1,564.27,unknown_male20.jpg
 5,23,1,1, 6,16,1,1,23,1,1,1,485.33,unknown_male23.jpg
 5,23,1,1, 6,17,1,2,13,2,2,1,461.31,unknown_female13.jpg
 5,23,1,1, 6,18,1,1,21,1,1,1,420.21,unknown_male21.jpg
 5,23,1,1, 6,19,1,1, 9,3,1,1,372.17,unknown_male09.jpg
 5,23,1,1, 6,20,1,1, 5,4,1,1,461.28,unknown_male05.jpg
 5,23,1,1, 6,21,1,2, 2,1,2,1,516.07,unknown_female02.jpg
 5,23,1,1, 6,22,1,1, 3,2,1,1,509.25,unknown_male03.jpg
 5,23,1,1, 6,23,1,1,19,2,1,1,437.24,unknown_male19.jpg
 5,23,1,1, 6,24,1,1,15,3,1,1,565.22,unknown_male15.jpg
 5,23,1,1, 7, 1,1,1,19,2,1,1,412.32,unknown_male19.jpg
 5,23,1,1, 7, 2,1,2, 9,1,2,1,443.74,unknown_female09.jpg
 5,23,1,1, 7, 3,1,1,23,1,1,1,428.33,unknown_male23.jpg
 5,23,1,1, 7, 4,1,2, 2,1,2,1,572.26,unknown_female02.jpg
 5,23,1,1, 7, 5,1,1,11,2,1,1,468.25,unknown_male11.jpg
 5,23,1,1, 7, 6,1,2,22,4,2,1,540.23,unknown_female22.jpg
 5,23,1,1, 7, 7,1,1, 5,4,1,1,444.22,unknown_male05.jpg
 5,23,1,1, 7, 8,1,2, 8,2,2,1,540.21,unknown_female08.jpg
 5,23,1,1, 7, 9,1,1,15,3,1,1,484.13,unknown_male15.jpg
 5,23,1,1, 7,10,1,2,21,4,2,1,532.20,unknown_female21.jpg
 5,23,1,1, 7,11,1,1, 9,3,1,1,476.17,unknown_male09.jpg
 5,23,1,1, 7,12,1,1, 7,3,1,1,436.14,unknown_male07.jpg
 5,23,1,1, 7,13,1,2,23,3,2,1,580.14,unknown_female23.jpg
 5,23,1,1, 7,14,1,2, 5,3,2,1,540.13,unknown_female05.jpg
 5,23,1,1, 7,15,1,1, 3,2,1,1,452.11,unknown_male03.jpg
 5,23,1,1, 7,16,1,2,19,4,2,1,443.06,unknown_female19.jpg
 5,23,1,1, 7,17,1,2, 1,2,2,1,419.01,unknown_female01.jpg
 5,23,1,1, 7,18,1,1,20,1,1,1,492.12,unknown_male20.jpg
 5,23,1,1, 7,19,1,1, 2,4,1,1,628.05,unknown_male02.jpg
 5,23,1,1, 7,20,1,2,13,2,2,1,564.06,unknown_female13.jpg
 5,23,1,1, 7,21,1,2, 3,1,2,1,588.02,unknown_female03.jpg
 5,23,1,1, 7,22,1,1,17,4,1,1,492.03,unknown_male17.jpg
 5,23,1,1, 7,23,1,1,21,1,1,1,636.03,unknown_male21.jpg
 5,23,1,1, 7,24,1,2,20,3,2,1,506.92,unknown_female20.jpg
 5,23,1,1, 8, 1,1,1,19,2,1,1,442.51,unknown_male19.jpg
 5,23,1,1, 8, 2,1,2,23,3,2,1,490.50,unknown_female23.jpg
 5,23,1,1, 8, 3,1,2, 3,1,2,1,362.47,unknown_female03.jpg
 5,23,1,1, 8, 4,1,1,20,1,1,1,402.46,unknown_male20.jpg
 5,23,1,1, 8, 5,1,1,21,1,1,1,666.42,unknown_male21.jpg
 5,23,1,1, 8, 6,1,1, 3,2,1,1,578.42,unknown_male03.jpg
 5,23,1,1, 8, 7,1,2,21,4,2,1,449.32,unknown_female21.jpg
 5,23,1,1, 8, 8,1,1, 2,4,1,1,490.40,unknown_male02.jpg
 5,23,1,1, 8, 9,1,1, 7,3,1,1,418.40,unknown_male07.jpg
 5,23,1,1, 8,10,1,2,19,4,2,1,465.26,unknown_female19.jpg
 5,23,1,1, 8,11,1,1,23,1,1,1,418.37,unknown_male23.jpg
 5,23,1,1, 8,12,1,2,22,4,1,3,433.26,unknown_female22.jpg
 5,23,1,1, 8,13,1,1,11,2,1,1,673.25,unknown_male11.jpg
 5,23,1,1, 8,14,1,2, 1,2,2,1,738.33,unknown_female01.jpg
 5,23,1,1, 8,15,1,1,15,3,1,1,506.30,unknown_male15.jpg
 5,23,1,1, 8,16,1,1,17,4,1,1,498.29,unknown_male17.jpg
 5,23,1,1, 8,17,1,2, 9,1,2,1,689.20,unknown_female09.jpg
 5,23,1,1, 8,18,1,1, 5,4,1,1,458.26,unknown_male05.jpg
 5,23,1,1, 8,19,1,1, 9,3,1,1,506.23,unknown_male09.jpg
 5,23,1,1, 8,20,1,2,20,3,2,1,418.26,unknown_female20.jpg
 5,23,1,1, 8,21,1,2,13,2,2,1,434.26,unknown_female13.jpg
 5,23,1,1, 8,22,1,2, 5,3,2,1,618.12,unknown_female05.jpg
 5,23,1,1, 8,23,1,2, 8,2,2,1,658.16,unknown_female08.jpg
 5,23,1,1, 8,24,1,2, 2,1,2,1,578.19,unknown_female02.jpg
 6,24,1,2, 1, 1,1,1, 6,2,1,1,785.77,famous_male06.jpg
 6,24,1,2, 1, 2,1,2, 9,3,2,1,601.05,famous_female09.jpg
 6,24,1,2, 1, 3,1,1, 1,3,1,1,761.04,famous_male01.jpg
 6,24,1,2, 1, 4,1,1, 7,3,1,1,753.05,famous_male07.jpg
 6,24,1,2, 1, 5,1,1,23,3,1,1,505.01,famous_male23.jpg
 6,24,1,2, 1, 6,1,1, 2,1,1,1,505.00,famous_male02.jpg
 6,24,1,2, 1, 7,1,1,14,4,1,1,632.99,famous_male14.jpg
 6,24,1,2, 1, 8,1,1, 3,4,1,1,568.99,famous_male03.jpg
 6,24,1,2, 1, 9,1,2,12,4,2,1,736.96,famous_female12.jpg
 6,24,1,2, 1,10,1,2,15,1,2,1,744.95,famous_female15.jpg
 6,24,1,2, 1,11,1,2,21,2,2,1,616.94,famous_female21.jpg
 6,24,1,2, 1,12,1,2,11,4,2,1,712.92,famous_female11.jpg
 6,24,1,2, 1,13,1,2, 1,2,2,1,792.93,famous_female01.jpg
 6,24,1,2, 1,14,1,1,12,2,1,1,544.88,famous_male12.jpg
 6,24,1,2, 1,15,1,2,24,4,2,1,672.92,famous_female24.jpg
 6,24,1,2, 1,16,1,2,22,3,2,1,599.98,famous_female22.jpg
 6,24,1,2, 1,17,1,2,23,1,2,1,552.78,famous_female23.jpg
 6,24,1,2, 1,18,1,1, 8,1,1,1,568.83,famous_male08.jpg
 6,24,1,2, 1,19,1,1,11,2,1,1,552.75,famous_male11.jpg
 6,24,1,2, 1,20,1,2,10,3,2,1,944.81,famous_female10.jpg
 6,24,1,2, 1,21,1,1,15,4,1,1,728.00,famous_male15.jpg
 6,24,1,2, 1,22,1,2, 4,1,2,1,615.93,famous_female04.jpg
 6,24,1,2, 1,23,1,2,13,2,2,1,767.86,famous_female13.jpg
 6,24,1,2, 1,24,1,1,13,1,1,1,471.86,famous_male13.jpg
 6,24,1,2, 2, 1,1,2,11,4,2,1,724.49,famous_female11.jpg
 6,24,1,2, 2, 2,1,1,13,1,1,1,548.43,famous_male13.jpg
 6,24,1,2, 2, 3,1,2, 9,3,2,1,476.40,famous_female09.jpg
 6,24,1,2, 2, 4,1,1,15,4,1,1,524.41,famous_male15.jpg
 6,24,1,2, 2, 5,1,1,14,4,1,1,412.40,famous_male14.jpg
 6,24,1,2, 2, 6,1,2,13,2,2,1,452.36,famous_female13.jpg
 6,24,1,2, 2, 7,1,2,21,2,2,1,907.97,famous_female21.jpg
 6,24,1,2, 2, 8,1,1,23,3,1,1,772.33,famous_male23.jpg
 6,24,1,2, 2, 9,1,1, 3,4,1,1,411.45,famous_male03.jpg
 6,24,1,2, 2,10,1,1, 1,3,1,1,435.46,famous_male01.jpg
 6,24,1,2, 2,11,1,2,12,4,2,1,491.48,famous_female12.jpg
 6,24,1,2, 2,12,1,1, 8,1,1,1,420.27,famous_male08.jpg
 6,24,1,2, 2,13,1,2, 4,1,2,1,530.95,famous_female04.jpg
 6,24,1,2, 2,14,1,1,12,2,1,1,524.31,famous_male12.jpg
 6,24,1,2, 2,15,1,2,15,1,2,1,459.38,famous_female15.jpg
 6,24,1,2, 2,16,1,2,10,3,2,1,435.39,famous_female10.jpg
 6,24,1,2, 2,17,1,1, 7,3,1,1,388.21,famous_male07.jpg
 6,24,1,2, 2,18,1,2,24,4,2,1,339.35,famous_female24.jpg
 6,24,1,2, 2,19,1,2,23,1,2,1,363.79,famous_female23.jpg
 6,24,1,2, 2,20,1,1, 6,2,1,1,460.19,famous_male06.jpg
 6,24,1,2, 2,21,1,2,22,3,2,1,523.76,famous_female22.jpg
 6,24,1,2, 2,22,1,2, 1,2,2,1,467.76,famous_female01.jpg
 6,24,1,2, 2,23,1,1, 2,1,1,1,459.28,famous_male02.jpg
 6,24,1,2, 2,24,1,1,11,2,1,1,395.22,famous_male11.jpg
 6,24,1,2, 3, 1,1,2,15,1,2,1,525.09,famous_female15.jpg
 6,24,1,2, 3, 2,1,1,23,3,1,1,589.19,famous_male23.jpg
 6,24,1,2, 3, 3,1,1, 2,1,1,1,525.05,famous_male02.jpg
 6,24,1,2, 3, 4,1,2, 9,3,2,1,453.09,famous_female09.jpg
 6,24,1,2, 3, 5,1,1,13,1,1,1,445.14,famous_male13.jpg
 6,24,1,2, 3, 6,1,2,12,4,2,1,461.01,famous_female12.jpg
 6,24,1,2, 3, 7,1,1, 8,1,1,1,436.14,famous_male08.jpg
 6,24,1,2, 3, 8,1,2, 1,2,2,1,461.02,famous_female01.jpg
 6,24,1,2, 3, 9,1,1, 3,4,1,1,453.00,famous_male03.jpg
 6,24,1,2, 3,10,1,1,15,4,1,1,372.59,famous_male15.jpg
 6,24,1,2, 3,11,1,2,10,3,2,1,396.94,famous_female10.jpg
 6,24,1,2, 3,12,1,1, 7,3,1,1,364.94,famous_male07.jpg
 6,24,1,2, 3,13,1,2,22,3,2,1,404.92,famous_female22.jpg
 6,24,1,2, 3,14,1,2,23,1,2,1,572.94,famous_female23.jpg
 6,24,1,2, 3,15,1,2,24,4,2,1,548.91,famous_female24.jpg
 6,24,1,2, 3,16,1,2,13,2,2,1,420.90,famous_female13.jpg
 6,24,1,2, 3,17,1,1,14,4,1,1,436.86,famous_male14.jpg
 6,24,1,2, 3,18,1,1,12,2,1,1,436.85,famous_male12.jpg
 6,24,1,2, 3,19,1,2,21,2,2,1,836.52,famous_female21.jpg
 6,24,1,2, 3,20,1,2,11,4,2,1,516.46,famous_female11.jpg
 6,24,1,2, 3,21,1,2, 4,1,2,1,443.59,famous_female04.jpg
 6,24,1,2, 3,22,1,1, 1,3,1,1,492.41,famous_male01.jpg
 6,24,1,2, 3,23,1,1,11,2,1,1,428.40,famous_male11.jpg
 6,24,1,2, 3,24,1,1, 6,2,1,1,484.40,famous_male06.jpg
 6,24,1,2, 4, 1,1,1,15,4,1,1,563.57,famous_male15.jpg
 6,24,1,2, 4, 2,1,1,14,4,1,1,363.58,famous_male14.jpg
 6,24,1,2, 4, 3,1,2,24,4,2,1,435.64,famous_female24.jpg
 6,24,1,2, 4, 4,1,1, 3,4,1,1,427.51,famous_male03.jpg
 6,24,1,2, 4, 5,1,2,21,2,2,1,683.49,famous_female21.jpg
 6,24,1,2, 4, 6,1,2,12,4,2,1,675.48,famous_female12.jpg
 6,24,1,2, 4, 7,1,2,22,3,2,1,411.48,famous_female22.jpg
 6,24,1,2, 4, 8,1,2, 1,2,2,1,411.47,famous_female01.jpg
 6,24,1,2, 4, 9,1,2,15,1,2,1,363.53,famous_female15.jpg
 6,24,1,2, 4,10,1,1, 1,3,1,1,427.44,famous_male01.jpg
 6,24,1,2, 4,11,1,2,13,2,2,1,715.43,famous_female13.jpg
 6,24,1,2, 4,12,1,1, 7,3,1,1,442.56,famous_male07.jpg
 6,24,1,2, 4,13,1,2,23,1,2,1,435.38,famous_female23.jpg
 6,24,1,2, 4,14,1,2,11,4,2,1,355.53,famous_female11.jpg
 6,24,1,2, 4,15,1,2, 4,1,2,1,467.40,famous_female04.jpg
 6,24,1,2, 4,16,1,1,23,3,1,1,435.36,famous_male23.jpg
 6,24,1,2, 4,17,1,2,10,3,2,1,410.49,famous_female10.jpg
 6,24,1,2, 4,18,1,1,12,2,1,1,491.34,famous_male12.jpg
 6,24,1,2, 4,19,1,1, 8,1,1,1,611.32,famous_male08.jpg
 6,24,1,2, 4,20,1,1,13,1,1,1,659.31,famous_male13.jpg
 6,24,1,2, 4,21,1,1, 2,1,1,1,627.29,famous_male02.jpg
 6,24,1,2, 4,22,1,1, 6,2,1,1,499.29,famous_male06.jpg
 6,24,1,2, 4,23,1,1,11,2,1,1,435.29,famous_male11.jpg
 6,24,1,2, 4,24,1,2, 9,3,2,1,499.29,famous_female09.jpg
 6,24,1,2, 5, 1,1,2, 9,3,2,1,523.97,famous_female09.jpg
 6,24,1,2, 5, 2,1,2, 1,2,2,1,459.04,famous_female01.jpg
 6,24,1,2, 5, 3,1,2, 4,1,2,1,507.92,famous_female04.jpg
 6,24,1,2, 5, 4,1,1,23,3,1,1,459.88,famous_male23.jpg
 6,24,1,2, 5, 5,1,1,11,2,1,1,411.89,famous_male11.jpg
 6,24,1,2, 5, 6,1,2,15,1,2,1,459.87,famous_female15.jpg
 6,24,1,2, 5, 7,1,2,24,4,2,1,427.86,famous_female24.jpg
 6,24,1,2, 5, 8,1,1, 2,1,1,1,499.83,famous_male02.jpg
 6,24,1,2, 5, 9,1,1,14,4,1,1,475.83,famous_male14.jpg
 6,24,1,2, 5,10,1,2,13,2,2,1,539.83,famous_female13.jpg
 6,24,1,2, 5,11,1,2,21,2,2,1,531.82,famous_female21.jpg
 6,24,1,2, 5,12,1,1,13,1,1,1,403.77,famous_male13.jpg
 6,24,1,2, 5,13,1,1, 7,3,1,1,370.90,famous_male07.jpg
 6,24,1,2, 5,14,1,1, 6,2,1,1,411.82,famous_male06.jpg
 6,24,1,2, 5,15,1,2,12,4,2,1,539.34,famous_female12.jpg
 6,24,1,2, 5,16,1,2,10,3,2,1,443.71,famous_female10.jpg
 6,24,1,2, 5,17,1,1, 8,1,1,1,491.71,famous_male08.jpg
 6,24,1,2, 5,18,1,1, 1,3,1,1,435.72,famous_male01.jpg
 6,24,1,2, 5,19,1,1,12,2,1,1,434.40,famous_male12.jpg
 6,24,1,2, 5,20,1,2,23,1,2,1,451.66,famous_female23.jpg
 6,24,1,2, 5,21,1,1,15,4,1,1,379.27,famous_male15.jpg
 6,24,1,2, 5,22,1,2,22,3,2,1,403.63,famous_female22.jpg
 6,24,1,2, 5,23,1,2,11,4,2,1,418.76,famous_female11.jpg
 6,24,1,2, 5,24,1,1, 3,4,1,1,514.75,famous_male03.jpg
 6,24,1,2, 6, 1,1,1,12,2,1,1,540.73,famous_male12.jpg
 6,24,1,2, 6, 2,1,1, 8,1,1,1,476.72,famous_male08.jpg
 6,24,1,2, 6, 3,1,1,13,1,1,1,388.71,famous_male13.jpg
 6,24,1,2, 6, 4,1,1, 2,1,1,1,572.69,famous_male02.jpg
 6,24,1,2, 6, 5,1,2, 1,2,2,1,372.68,famous_female01.jpg
 6,24,1,2, 6, 6,1,1, 3,4,1,1,476.69,famous_male03.jpg
 6,24,1,2, 6, 7,1,2,13,2,2,1,484.66,famous_female13.jpg
 6,24,1,2, 6, 8,1,2,23,1,2,1,531.78,famous_female23.jpg
 6,24,1,2, 6, 9,1,2,10,3,2,1,411.76,famous_female10.jpg
 6,24,1,2, 6,10,1,1,11,2,1,1,516.62,famous_male11.jpg
 6,24,1,2, 6,11,1,1,14,4,1,1,404.68,famous_male14.jpg
 6,24,1,2, 6,12,1,2,15,1,2,1,468.61,famous_female15.jpg
 6,24,1,2, 6,13,1,1,15,4,1,1,492.57,famous_male15.jpg
 6,24,1,2, 6,14,1,2,22,3,2,1,444.50,famous_female22.jpg
 6,24,1,2, 6,15,1,2,12,4,2,1,524.55,famous_female12.jpg
 6,24,1,2, 6,16,1,1, 7,3,1,1,444.61,famous_male07.jpg
 6,24,1,2, 6,17,1,1, 1,3,1,1,500.54,famous_male01.jpg
 6,24,1,2, 6,18,1,2,24,4,2,1,412.53,famous_female24.jpg
 6,24,1,2, 6,19,1,1, 6,2,1,1,476.52,famous_male06.jpg
 6,24,1,2, 6,20,1,2,21,2,2,1,532.51,famous_female21.jpg
 6,24,1,2, 6,21,1,2,11,4,2,1,428.46,famous_female11.jpg
 6,24,1,2, 6,22,1,2, 9,3,2,1,476.48,famous_female09.jpg
 6,24,1,2, 6,23,1,2, 4,1,2,1,548.46,famous_female04.jpg
 6,24,1,2, 6,24,1,1,23,3,1,1,532.42,famous_male23.jpg
 6,24,1,2, 7, 1,1,2,23,1,2,1,547.69,famous_female23.jpg
 6,24,1,2, 7, 2,1,2,24,4,2,1,443.70,famous_female24.jpg
 6,24,1,2, 7, 3,1,2,12,4,2,1,403.68,famous_female12.jpg
 6,24,1,2, 7, 4,1,2,15,1,2,1,339.66,famous_female15.jpg
 6,24,1,2, 7, 5,1,2,21,2,2,1,434.32,famous_female21.jpg
 6,24,1,2, 7, 6,1,2,13,2,2,1,339.62,famous_female13.jpg
 6,24,1,2, 7, 7,1,2, 4,1,2,1,395.64,famous_female04.jpg
 6,24,1,2, 7, 8,1,2,22,3,2,1,307.62,famous_female22.jpg
 6,24,1,2, 7, 9,1,1,13,1,1,1,435.59,famous_male13.jpg
 6,24,1,2, 7,10,1,1,23,3,1,1,403.59,famous_male23.jpg
 6,24,1,2, 7,11,1,2,10,3,2,1,411.18,famous_female10.jpg
 6,24,1,2, 7,12,1,1, 8,1,1,1,475.61,famous_male08.jpg
 6,24,1,2, 7,13,1,1,15,4,1,1,395.53,famous_male15.jpg
 6,24,1,2, 7,14,1,2, 9,3,2,1,427.52,famous_female09.jpg
 6,24,1,2, 7,15,1,1,14,4,1,1,443.50,famous_male14.jpg
 6,24,1,2, 7,16,1,2, 1,2,2,1,427.48,famous_female01.jpg
 6,24,1,2, 7,17,1,1,12,2,1,1,403.46,famous_male12.jpg
 6,24,1,2, 7,18,1,1, 1,3,1,1,515.52,famous_male01.jpg
 6,24,1,2, 7,19,1,1, 3,4,1,1,427.47,famous_male03.jpg
 6,24,1,2, 7,20,1,1, 7,3,1,1,371.47,famous_male07.jpg
 6,24,1,2, 7,21,1,1, 6,2,1,1,379.41,famous_male06.jpg
 6,24,1,2, 7,22,1,1,11,2,1,1,403.43,famous_male11.jpg
 6,24,1,2, 7,23,1,1, 2,1,1,1,395.39,famous_male02.jpg
 6,24,1,2, 7,24,1,2,11,4,2,1,499.00,famous_female11.jpg
 6,24,1,2, 8, 1,1,2, 9,3,2,1,419.14,famous_female09.jpg
 6,24,1,2, 8, 2,1,2,13,2,2,1,434.71,famous_female13.jpg
 6,24,1,2, 8, 3,1,1, 3,4,1,1,411.08,famous_male03.jpg
 6,24,1,2, 8, 4,1,2,12,4,2,1,667.06,famous_female12.jpg
 6,24,1,2, 8, 5,1,2, 4,1,2,1,523.11,famous_female04.jpg
 6,24,1,2, 8, 6,1,1, 6,2,1,1,483.03,famous_male06.jpg
 6,24,1,2, 8, 7,1,1, 8,1,1,1,378.20,famous_male08.jpg
 6,24,1,2, 8, 8,1,1, 1,3,1,1,395.03,famous_male01.jpg
 6,24,1,2, 8, 9,1,1,11,2,1,1,395.00,famous_male11.jpg
 6,24,1,2, 8,10,1,2,22,3,2,1,402.98,famous_female22.jpg
 6,24,1,2, 8,11,1,1, 2,1,1,1,355.00,famous_male02.jpg
 6,24,1,2, 8,12,1,2,10,3,2,1,475.00,famous_female10.jpg
 6,24,1,2, 8,13,1,1,12,2,1,1,386.97,famous_male12.jpg
 6,24,1,2, 8,14,1,1,14,4,1,1,466.94,famous_male14.jpg
 6,24,1,2, 8,15,1,2,15,1,2,1,362.92,famous_female15.jpg
 6,24,1,2, 8,16,1,1,23,3,1,1,442.90,famous_male23.jpg
 6,24,1,2, 8,17,1,2,11,4,2,1,562.91,famous_female11.jpg
 6,24,1,2, 8,18,1,1, 7,3,1,1,554.91,famous_male07.jpg
 6,24,1,2, 8,19,1,1,13,1,1,1,402.89,famous_male13.jpg
 6,24,1,2, 8,20,1,2,24,4,2,1,506.93,famous_female24.jpg
 6,24,1,2, 8,21,1,2, 1,2,2,1,514.84,famous_female01.jpg
 6,24,1,2, 8,22,1,2,21,2,2,1,578.82,famous_female21.jpg
 6,24,1,2, 8,23,1,2,23,1,2,1,450.72,famous_female23.jpg
 6,24,1,2, 8,24,1,1,15,4,1,1,450.73,famous_male15.jpg
 7,24,1,1, 1, 1,1,2,21,1,2,1,418.25,unknown_female21.jpg
 7,24,1,1, 1, 2,1,2,12,3,2,1,442.40,unknown_female12.jpg
 7,24,1,1, 1, 3,1,2,17,2,2,1,410.22,unknown_female17.jpg
 7,24,1,1, 1, 4,1,1,23,3,1,1,442.22,unknown_male23.jpg
 7,24,1,1, 1, 5,1,1,14,2,1,1,386.23,unknown_male14.jpg
 7,24,1,1, 1, 6,1,1, 2,4,1,1,362.19,unknown_male02.jpg
 7,24,1,1, 1, 7,1,1, 7,3,1,1,393.14,unknown_male07.jpg
 7,24,1,1, 1, 8,1,1, 4,3,1,1,354.37,unknown_male04.jpg
 7,24,1,1, 1, 9,1,2,22,1,2,1,354.15,unknown_female22.jpg
 7,24,1,1, 1,10,1,2,20,3,2,1,362.12,unknown_female20.jpg
 7,24,1,1, 1,11,1,2,14,4,2,1,353.03,unknown_female14.jpg
 7,24,1,1, 1,12,1,1,16,1,1,1,321.04,unknown_male16.jpg
 7,24,1,1, 1,13,1,1, 6,4,1,1,424.99,unknown_male06.jpg
 7,24,1,1, 1,14,1,1,19,4,1,1,442.06,unknown_male19.jpg
 7,24,1,1, 1,15,1,2, 3,4,2,1,408.98,unknown_female03.jpg
 7,24,1,1, 1,16,1,2, 8,2,2,1,362.04,unknown_female08.jpg
 7,24,1,1, 1,17,1,2, 4,1,2,1,378.02,unknown_female04.jpg
 7,24,1,1, 1,18,1,1,15,2,1,1,432.95,unknown_male15.jpg
 7,24,1,1, 1,19,1,1, 9,1,1,1,329.04,unknown_male09.jpg
 7,24,1,1, 1,20,1,2, 1,4,2,1,369.97,unknown_female01.jpg
 7,24,1,1, 1,21,1,2,18,2,2,1,386.01,unknown_female18.jpg
 7,24,1,1, 1,22,1,1, 1,1,1,1,384.91,unknown_male01.jpg
 7,24,1,1, 1,23,1,1,12,2,1,1,328.86,unknown_male12.jpg
 7,24,1,1, 1,24,1,2,11,3,2,1,377.96,unknown_female11.jpg
 7,24,1,1, 2, 1,1,1, 6,4,1,1,417.59,unknown_male06.jpg
 7,24,1,1, 2, 2,1,2,14,4,2,1,344.49,unknown_female14.jpg
 7,24,1,1, 2, 3,1,1,15,2,2,2,505.57,unknown_male15.jpg
 7,24,1,1, 2, 4,1,2, 4,1,2,1,393.55,unknown_female04.jpg
 7,24,1,1, 2, 5,1,1,14,2,1,1,432.46,unknown_male14.jpg
 7,24,1,1, 2, 6,1,1, 7,3,1,1,321.50,unknown_male07.jpg
 7,24,1,1, 2, 7,1,1,12,2,1,1,353.49,unknown_male12.jpg
 7,24,1,1, 2, 8,1,2,18,2,2,1,289.55,unknown_female18.jpg
 7,24,1,1, 2, 9,1,2,11,3,2,1,265.47,unknown_female11.jpg
 7,24,1,1, 2,10,1,1, 9,1,1,1,353.48,unknown_male09.jpg
 7,24,1,1, 2,11,1,2, 3,4,2,1,369.47,unknown_female03.jpg
 7,24,1,1, 2,12,1,2,22,1,2,1,409.42,unknown_female22.jpg
 7,24,1,1, 2,13,1,2, 8,2,2,1,329.42,unknown_female08.jpg
 7,24,1,1, 2,14,1,1, 4,3,1,1,353.43,unknown_male04.jpg
 7,24,1,1, 2,15,1,1,16,1,1,1,337.37,unknown_male16.jpg
 7,24,1,1, 2,16,1,1, 2,4,1,1,361.37,unknown_male02.jpg
 7,24,1,1, 2,17,1,1, 1,1,1,1,409.35,unknown_male01.jpg
 7,24,1,1, 2,18,1,2,21,1,2,1,337.34,unknown_female21.jpg
 7,24,1,1, 2,19,1,1,19,4,1,1,377.36,unknown_male19.jpg
 7,24,1,1, 2,20,1,2,20,3,2,1,377.32,unknown_female20.jpg
 7,24,1,1, 2,21,1,2,12,3,1,2,321.29,unknown_female12.jpg
 7,24,1,1, 2,22,1,2, 1,4,2,1,649.37,unknown_female01.jpg
 7,24,1,1, 2,23,1,1,23,3,1,1,425.25,unknown_male23.jpg
 7,24,1,1, 2,24,1,2,17,2,2,1,385.30,unknown_female17.jpg
 7,24,1,1, 3, 1,1,2,17,2,2,1,461.35,unknown_female17.jpg
 7,24,1,1, 3, 2,1,2,12,3,2,1,381.33,unknown_female12.jpg
 7,24,1,1, 3, 3,1,2,21,1,2,1,540.24,unknown_female21.jpg
 7,24,1,1, 3, 4,1,1,16,1,1,1,452.20,unknown_male16.jpg
 7,24,1,1, 3, 5,1,1,14,2,1,1,364.21,unknown_male14.jpg
 7,24,1,1, 3, 6,1,2,11,3,2,1,381.27,unknown_female11.jpg
 7,24,1,1, 3, 7,1,1,15,2,1,1,445.24,unknown_male15.jpg
 7,24,1,1, 3, 8,1,2, 3,4,2,1,365.27,unknown_female03.jpg
 7,24,1,1, 3, 9,1,2, 8,2,2,1,356.16,unknown_female08.jpg
 7,24,1,1, 3,10,1,1,19,4,1,1,333.22,unknown_male19.jpg
 7,24,1,1, 3,11,1,2,20,3,2,1,356.13,unknown_female20.jpg
 7,24,1,1, 3,12,1,2,22,1,2,1,412.15,unknown_female22.jpg
 7,24,1,1, 3,13,1,1, 1,1,1,1,373.18,unknown_male01.jpg
 7,24,1,1, 3,14,1,1, 2,4,1,1,348.14,unknown_male02.jpg
 7,24,1,1, 3,15,1,1, 6,4,1,1,404.11,unknown_male06.jpg
 7,24,1,1, 3,16,1,2, 1,4,2,1,357.13,unknown_female01.jpg
 7,24,1,1, 3,17,1,1, 4,3,1,1,312.97,unknown_male04.jpg
 7,24,1,1, 3,18,1,2, 4,1,2,1,352.91,unknown_female04.jpg
 7,24,1,1, 3,19,1,1, 7,3,1,1,328.91,unknown_male07.jpg
 7,24,1,1, 3,20,1,1,23,3,1,1,424.92,unknown_male23.jpg
 7,24,1,1, 3,21,1,1,12,2,1,1,320.87,unknown_male12.jpg
 7,24,1,1, 3,22,1,2,14,4,2,1,335.82,unknown_female14.jpg
 7,24,1,1, 3,23,1,1, 9,1,1,1,360.85,unknown_male09.jpg
 7,24,1,1, 3,24,1,2,18,2,2,1,320.86,unknown_female18.jpg
 7,24,1,1, 4, 1,1,1,14,2,1,1,357.70,unknown_male14.jpg
 7,24,1,1, 4, 2,1,2,21,1,2,1,357.67,unknown_female21.jpg
 7,24,1,1, 4, 3,1,2, 4,1,2,1,357.66,unknown_female04.jpg
 7,24,1,1, 4, 4,1,1,19,4,1,1,277.67,unknown_male19.jpg
 7,24,1,1, 4, 5,1,1,23,3,1,1,269.63,unknown_male23.jpg
 7,24,1,1, 4, 6,1,2,14,4,1,2,301.61,unknown_female14.jpg
 7,24,1,1, 4, 7,1,1, 2,4,1,1,341.61,unknown_male02.jpg
 7,24,1,1, 4, 8,1,2,22,1,2,1,493.59,unknown_female22.jpg
 7,24,1,1, 4, 9,1,1, 6,4,1,1,341.57,unknown_male06.jpg
 7,24,1,1, 4,10,1,1, 4,3,1,1,357.60,unknown_male04.jpg
 7,24,1,1, 4,11,1,2,20,3,2,1,365.54,unknown_female20.jpg
 7,24,1,1, 4,12,1,2, 3,4,2,1,405.54,unknown_female03.jpg
 7,24,1,1, 4,13,1,2, 8,2,2,1,357.51,unknown_female08.jpg
 7,24,1,1, 4,14,1,1, 7,3,1,1,301.52,unknown_male07.jpg
 7,24,1,1, 4,15,1,1,15,2,1,1,341.50,unknown_male15.jpg
 7,24,1,1, 4,16,1,2,18,2,2,1,333.49,unknown_female18.jpg
 7,24,1,1, 4,17,1,1, 1,1,1,1,293.51,unknown_male01.jpg
 7,24,1,1, 4,18,1,1, 9,1,1,1,373.49,unknown_male09.jpg
 7,24,1,1, 4,19,1,2,12,3,2,1,292.41,unknown_female12.jpg
 7,24,1,1, 4,20,1,1,16,1,2,2,332.40,unknown_male16.jpg
 7,24,1,1, 4,21,1,2, 1,4,2,1,389.45,unknown_female01.jpg
 7,24,1,1, 4,22,1,2,17,2,2,1,469.39,unknown_female17.jpg
 7,24,1,1, 4,23,1,1,12,2,1,1,341.42,unknown_male12.jpg
 7,24,1,1, 4,24,1,2,11,3,2,1,357.37,unknown_female11.jpg
 7,24,1,1, 5, 1,1,2,22,1,2,1,387.23,unknown_female22.jpg
 7,24,1,1, 5, 2,1,1,16,1,1,1,355.21,unknown_male16.jpg
 7,24,1,1, 5, 3,1,1,12,2,1,1,323.19,unknown_male12.jpg
 7,24,1,1, 5, 4,1,1,23,3,1,1,403.24,unknown_male23.jpg
 7,24,1,1, 5, 5,1,1,19,4,1,1,419.17,unknown_male19.jpg
 7,24,1,1, 5, 6,1,2,17,2,2,1,323.20,unknown_female17.jpg
 7,24,1,1, 5, 7,1,2,12,3,2,1,299.17,unknown_female12.jpg
 7,24,1,1, 5, 8,1,1, 6,4,1,1,331.11,unknown_male06.jpg
 7,24,1,1, 5, 9,1,2,11,3,2,1,315.11,unknown_female11.jpg
 7,24,1,1, 5,10,1,2, 8,2,2,1,307.10,unknown_female08.jpg
 7,24,1,1, 5,11,1,1, 7,3,1,1,315.08,unknown_male07.jpg
 7,24,1,1, 5,12,1,1, 9,1,1,1,371.08,unknown_male09.jpg
 7,24,1,1, 5,13,1,2,18,2,2,1,363.06,unknown_female18.jpg
 7,24,1,1, 5,14,1,1,14,2,1,1,467.10,unknown_male14.jpg
 7,24,1,1, 5,15,1,1, 1,1,1,1,435.03,unknown_male01.jpg
 7,24,1,1, 5,16,1,2,21,1,2,1,363.06,unknown_female21.jpg
 7,24,1,1, 5,17,1,1, 4,3,1,1,330.01,unknown_male04.jpg
 7,24,1,1, 5,18,1,2,20,3,2,1,355.03,unknown_female20.jpg
 7,24,1,1, 5,19,1,2,14,4,2,1,402.97,unknown_female14.jpg
 7,24,1,1, 5,20,1,1,15,2,1,1,314.98,unknown_male15.jpg
 7,24,1,1, 5,21,1,2, 1,4,2,1,386.96,unknown_female01.jpg
 7,24,1,1, 5,22,1,2, 3,4,2,1,377.89,unknown_female03.jpg
 7,24,1,1, 5,23,1,2, 4,1,2,1,466.93,unknown_female04.jpg
 7,24,1,1, 5,24,1,1, 2,4,1,1,378.91,unknown_male02.jpg
 7,24,1,1, 6, 1,1,1,12,2,1,1,461.14,unknown_male12.jpg
 7,24,1,1, 6, 2,1,1, 7,3,1,1,365.17,unknown_male07.jpg
 7,24,1,1, 6, 3,1,1,16,1,1,1,469.14,unknown_male16.jpg
 7,24,1,1, 6, 4,1,1,19,4,1,1,317.09,unknown_male19.jpg
 7,24,1,1, 6, 5,1,2, 4,1,2,1,348.00,unknown_female04.jpg
 7,24,1,1, 6, 6,1,2,22,1,2,1,396.00,unknown_female22.jpg
 7,24,1,1, 6, 7,1,1, 1,1,1,1,413.05,unknown_male01.jpg
 7,24,1,1, 6, 8,1,1, 4,3,1,1,365.03,unknown_male04.jpg
 7,24,1,1, 6, 9,1,1,23,3,1,1,365.13,unknown_male23.jpg
 7,24,1,1, 6,10,1,2,11,3,2,1,349.01,unknown_female11.jpg
 7,24,1,1, 6,11,1,1,15,2,1,1,397.00,unknown_male15.jpg
 7,24,1,1, 6,12,1,1, 6,4,2,2,492.98,unknown_male06.jpg
 7,24,1,1, 6,13,1,2,14,4,2,1,356.98,unknown_female14.jpg
 7,24,1,1, 6,14,1,2, 1,4,2,1,476.94,unknown_female01.jpg
 7,24,1,1, 6,15,1,2, 8,2,2,1,355.85,unknown_female08.jpg
 7,24,1,1, 6,16,1,2,12,3,2,1,428.93,unknown_female12.jpg
 7,24,1,1, 6,17,1,2,18,2,2,1,340.94,unknown_female18.jpg
 7,24,1,1, 6,18,1,1, 2,4,1,1,420.94,unknown_male02.jpg
 7,24,1,1, 6,19,1,2, 3,4,2,1,403.89,unknown_female03.jpg
 7,24,1,1, 6,20,1,1,14,2,1,1,332.88,unknown_male14.jpg
 7,24,1,1, 6,21,1,1, 9,1,1,1,348.90,unknown_male09.jpg
 7,24,1,1, 6,22,1,2,21,1,2,1,620.88,unknown_female21.jpg
 7,24,1,1, 6,23,1,2,17,2,2,1,444.86,unknown_female17.jpg
 7,24,1,1, 6,24,1,2,20,3,2,1,428.83,unknown_female20.jpg
 7,24,1,1, 7, 1,1,1, 9,1,1,1,327.13,unknown_male09.jpg
 7,24,1,1, 7, 2,1,2,22,1,2,1,359.10,unknown_female22.jpg
 7,24,1,1, 7, 3,1,2, 1,4,2,1,423.09,unknown_female01.jpg
 7,24,1,1, 7, 4,1,2,14,4,2,1,407.08,unknown_female14.jpg
 7,24,1,1, 7, 5,1,1, 2,4,1,1,351.10,unknown_male02.jpg
 7,24,1,1, 7, 6,1,1, 7,3,1,1,247.07,unknown_male07.jpg
 7,24,1,1, 7, 7,1,2,20,3,2,1,399.07,unknown_female20.jpg
 7,24,1,1, 7, 8,1,1,23,3,1,1,399.03,unknown_male23.jpg
 7,24,1,1, 7, 9,1,1, 6,4,1,1,359.01,unknown_male06.jpg
 7,24,1,1, 7,10,1,1,12,2,1,1,335.01,unknown_male12.jpg
 7,24,1,1, 7,11,1,1,19,4,1,1,342.99,unknown_male19.jpg
 7,24,1,1, 7,12,1,2,18,2,2,1,414.99,unknown_female18.jpg
 7,24,1,1, 7,13,1,1, 1,1,1,1,406.98,unknown_male01.jpg
 7,24,1,1, 7,14,1,1,14,2,1,1,374.96,unknown_male14.jpg
 7,24,1,1, 7,15,1,2, 4,1,2,1,294.97,unknown_female04.jpg
 7,24,1,1, 7,16,1,2, 8,2,2,1,430.92,unknown_female08.jpg
 7,24,1,1, 7,17,1,2,11,3,2,1,405.82,unknown_female11.jpg
 7,24,1,1, 7,18,1,2, 3,4,2,1,406.89,unknown_female03.jpg
 7,24,1,1, 7,19,1,2,21,1,2,1,357.81,unknown_female21.jpg
 7,24,1,1, 7,20,1,2,17,2,2,1,374.91,unknown_female17.jpg
 7,24,1,1, 7,21,1,1,15,2,1,1,389.76,unknown_male15.jpg
 7,24,1,1, 7,22,1,1,16,1,1,1,310.88,unknown_male16.jpg
 7,24,1,1, 7,23,1,2,12,3,2,1,406.83,unknown_female12.jpg
 7,24,1,1, 7,24,1,1, 4,3,1,1,470.83,unknown_male04.jpg
 7,24,1,1, 8, 1,1,2, 1,4,2,1,526.32,unknown_female01.jpg
 7,24,1,1, 8, 2,1,1,16,1,1,1,349.29,unknown_male16.jpg
 7,24,1,1, 8, 3,1,2,22,1,2,1,414.26,unknown_female22.jpg
 7,24,1,1, 8, 4,1,2, 4,1,2,1,422.26,unknown_female04.jpg
 7,24,1,1, 8, 5,1,1, 1,1,1,1,374.25,unknown_male01.jpg
 7,24,1,1, 8, 6,1,1, 4,3,1,1,382.23,unknown_male04.jpg
 7,24,1,1, 8, 7,1,2, 8,2,2,1,414.22,unknown_female08.jpg
 7,24,1,1, 8, 8,1,1, 7,3,1,1,462.22,unknown_male07.jpg
 7,24,1,1, 8, 9,1,1,12,2,1,1,454.21,unknown_male12.jpg
 7,24,1,1, 8,10,1,2,21,1,2,1,494.19,unknown_female21.jpg
 7,24,1,1, 8,11,1,1,23,3,1,1,406.20,unknown_male23.jpg
 7,24,1,1, 8,12,1,2,20,3,2,1,357.05,unknown_female20.jpg
 7,24,1,1, 8,13,1,1,14,2,1,1,342.15,unknown_male14.jpg
 7,24,1,1, 8,14,1,2,14,4,2,1,357.05,unknown_female14.jpg
 7,24,1,1, 8,15,1,2,18,2,2,1,470.12,unknown_female18.jpg
 7,24,1,1, 8,16,1,1, 2,4,1,1,342.09,unknown_male02.jpg
 7,24,1,1, 8,17,1,2,17,2,2,1,542.07,unknown_female17.jpg
 7,24,1,1, 8,18,1,1, 6,4,1,1,534.10,unknown_male06.jpg
 7,24,1,1, 8,19,1,2, 3,4,2,1,486.10,unknown_female03.jpg
 7,24,1,1, 8,20,1,1,19,4,1,1,398.05,unknown_male19.jpg
 7,24,1,1, 8,21,1,2,12,3,2,1,557.01,unknown_female12.jpg
 7,24,1,1, 8,22,1,1,15,2,1,1,406.02,unknown_male15.jpg
 7,24,1,1, 8,23,1,1, 9,1,1,1,532.96,unknown_male09.jpg
 7,24,1,1, 8,24,1,2,11,3,2,1,421.97,unknown_female11.jpg
 8,22,2,2, 1, 1,1,2, 8,4,2,1,851.50,famous_female08.jpg
 8,22,2,2, 1, 2,1,1,13,4,1,1,642.70,famous_male13.jpg
 8,22,2,2, 1, 3,1,2,23,4,2,1,642.69,famous_female23.jpg
 8,22,2,2, 1, 4,1,1,20,3,1,1,714.69,famous_male20.jpg
 8,22,2,2, 1, 5,1,2, 7,3,2,1,818.68,famous_female07.jpg
 8,22,2,2, 1, 6,1,2,20,4,2,1,978.65,famous_female20.jpg
 8,22,2,2, 1, 7,1,1,23,2,1,1,850.63,famous_male23.jpg
 8,22,2,2, 1, 8,1,1,11,1,1,1,1090.59,famous_male11.jpg
 8,22,2,2, 1, 9,1,2,24,3,2,1,714.61,famous_female24.jpg
 8,22,2,2, 1,10,1,1, 6,3,1,1,754.60,famous_male06.jpg
 8,22,2,2, 1,11,1,2, 5,3,2,1,642.67,famous_female05.jpg
 8,22,2,2, 1,12,1,2,15,1,2,1,834.56,famous_female15.jpg
 8,22,2,2, 1,13,1,2,21,2,2,1,746.55,famous_female21.jpg
 8,22,2,2, 1,14,1,1,21,4,1,1,730.56,famous_male21.jpg
 8,22,2,2, 1,15,1,1,17,4,1,1,682.52,famous_male17.jpg
 8,22,2,2, 1,16,1,1,18,1,1,1,617.09,famous_male18.jpg
 8,22,2,2, 1,17,1,1,12,2,1,1,682.49,famous_male12.jpg
 8,22,2,2, 1,18,1,2, 9,1,2,1,633.54,famous_female09.jpg
 8,22,2,2, 1,19,1,2,17,1,2,1,882.50,famous_female17.jpg
 8,22,2,2, 1,20,1,1,14,1,1,1,777.66,famous_male14.jpg
 8,22,2,2, 1,21,1,2, 4,2,2,1,601.57,famous_female04.jpg
 8,22,2,2, 1,22,1,1,16,2,2,2,649.56,famous_male16.jpg
 8,22,2,2, 1,23,1,2,22,2,2,1,906.55,famous_female22.jpg
 8,22,2,2, 1,24,1,1, 7,3,1,1,537.50,famous_male07.jpg
 8,22,2,2, 2, 1,1,2, 7,3,2,1,849.35,famous_female07.jpg
 8,22,2,2, 2, 2,1,2,22,2,2,1,617.36,famous_female22.jpg
 8,22,2,2, 2, 3,1,1, 7,3,1,1,631.99,famous_male07.jpg
 8,22,2,2, 2, 4,1,1,18,1,1,1,697.31,famous_male18.jpg
 8,22,2,2, 2, 5,1,2,17,1,2,1,649.29,famous_female17.jpg
 8,22,2,2, 2, 6,1,2,20,4,2,1,584.90,famous_female20.jpg
 8,22,2,2, 2, 7,1,2,24,3,2,1,945.26,famous_female24.jpg
 8,22,2,2, 2, 8,1,2,23,4,2,1,504.44,famous_female23.jpg
 8,22,2,2, 2, 9,1,2, 4,2,2,1,513.24,famous_female04.jpg
 8,22,2,2, 2,10,1,2, 5,3,2,1,481.23,famous_female05.jpg
 8,22,2,2, 2,11,1,2, 9,1,2,1,521.21,famous_female09.jpg
 8,22,2,2, 2,12,1,2,15,1,2,1,728.81,famous_female15.jpg
 8,22,2,2, 2,13,1,1,20,3,1,1,527.92,famous_male20.jpg
 8,22,2,2, 2,14,1,1,17,4,1,1,672.33,famous_male17.jpg
 8,22,2,2, 2,15,1,2,21,2,2,1,785.17,famous_female21.jpg
 8,22,2,2, 2,16,1,1,14,1,1,1,865.15,famous_male14.jpg
 8,22,2,2, 2,17,1,1,16,2,1,1,679.78,famous_male16.jpg
 8,22,2,2, 2,18,1,1, 6,3,1,1,728.26,famous_male06.jpg
 8,22,2,2, 2,19,1,1,12,2,1,1,513.14,famous_male12.jpg
 8,22,2,2, 2,20,1,1,21,4,1,1,696.71,famous_male21.jpg
 8,22,2,2, 2,21,1,2, 8,4,2,1,624.70,famous_female08.jpg
 8,22,2,2, 2,22,1,1,23,2,1,1,752.56,famous_male23.jpg
 8,22,2,2, 2,23,1,1,13,4,1,1,504.66,famous_male13.jpg
 8,22,2,2, 2,24,1,1,11,1,1,1,489.03,famous_male11.jpg
 8,22,2,2, 3, 1,1,2, 8,4,2,1,614.83,famous_female08.jpg
 8,22,2,2, 3, 2,1,1,16,2,1,1,622.42,famous_male16.jpg
 8,22,2,2, 3, 3,1,2, 4,2,2,1,518.82,famous_female04.jpg
 8,22,2,2, 3, 4,1,1,18,1,1,1,525.92,famous_male18.jpg
 8,22,2,2, 3, 5,1,1, 7,3,1,1,509.55,famous_male07.jpg
 8,22,2,2, 3, 6,1,2, 9,1,2,1,637.55,famous_female09.jpg
 8,22,2,2, 3, 7,1,1,13,4,1,1,582.39,famous_male13.jpg
 8,22,2,2, 3, 8,1,2,17,1,2,1,549.89,famous_female17.jpg
 8,22,2,2, 3, 9,1,1,23,2,1,1,589.96,famous_male23.jpg
 8,22,2,2, 3,10,1,1,12,2,1,1,421.85,famous_male12.jpg
 8,22,2,2, 3,11,1,1,20,3,1,1,742.31,famous_male20.jpg
 8,22,2,2, 3,12,1,2,24,3,2,1,590.67,famous_female24.jpg
 8,22,2,2, 3,13,1,2,22,2,2,1,677.82,famous_female22.jpg
 8,22,2,2, 3,14,1,2,20,4,2,1,534.63,famous_female20.jpg
 8,22,2,2, 3,15,1,2,23,4,2,1,445.75,famous_female23.jpg
 8,22,2,2, 3,16,1,1,11,1,1,1,494.24,famous_male11.jpg
 8,22,2,2, 3,17,1,1,21,4,1,1,622.60,famous_male21.jpg
 8,22,2,2, 3,18,1,2, 7,3,2,1,614.59,famous_female07.jpg
 8,22,2,2, 3,19,1,1,17,4,1,1,661.70,famous_male17.jpg
 8,22,2,2, 3,20,1,2,21,2,2,1,534.17,famous_female21.jpg
 8,22,2,2, 3,21,1,2, 5,3,2,1,534.55,famous_female05.jpg
 8,22,2,2, 3,22,1,1, 6,3,1,1,613.67,famous_male06.jpg
 8,22,2,2, 3,23,1,2,15,1,2,1,693.67,famous_female15.jpg
 8,22,2,2, 3,24,1,1,14,1,1,1,734.57,famous_male14.jpg
 8,22,2,2, 4, 1,1,2,15,1,2,1,569.66,famous_female15.jpg
 8,22,2,2, 4, 2,1,1, 7,3,1,1,465.24,famous_male07.jpg
 8,22,2,2, 4, 3,1,2,24,3,2,1,593.59,famous_female24.jpg
 8,22,2,2, 4, 4,1,2,20,4,2,1,593.60,famous_female20.jpg
 8,22,2,2, 4, 5,1,2, 9,1,2,1,536.75,famous_female09.jpg
 8,22,2,2, 4, 6,1,2, 4,2,2,1,496.72,famous_female04.jpg
 8,22,2,2, 4, 7,1,1, 6,3,1,1,489.56,famous_male06.jpg
 8,22,2,2, 4, 8,1,1,21,4,1,1,441.53,famous_male21.jpg
 8,22,2,2, 4, 9,1,1,13,4,1,1,609.53,famous_male13.jpg
 8,22,2,2, 4,10,1,2, 5,3,2,1,472.67,famous_female05.jpg
 8,22,2,2, 4,11,1,1,17,4,1,1,656.66,famous_male17.jpg
 8,22,2,2, 4,12,1,1,16,2,1,1,1057.51,famous_male16.jpg
 8,22,2,2, 4,13,1,1,18,1,1,1,512.60,famous_male18.jpg
 8,22,2,2, 4,14,1,1,23,2,1,1,433.46,famous_male23.jpg
 8,22,2,2, 4,15,1,2,22,2,2,1,560.21,famous_female22.jpg
 8,22,2,2, 4,16,1,1,11,1,1,1,513.45,famous_male11.jpg
 8,22,2,2, 4,17,1,2, 7,3,2,1,480.59,famous_female07.jpg
 8,22,2,2, 4,18,1,1,12,2,1,1,521.42,famous_male12.jpg
 8,22,2,2, 4,19,1,2,21,2,2,1,576.55,famous_female21.jpg
 8,22,2,2, 4,20,1,2,17,1,2,1,504.53,famous_female17.jpg
 8,22,2,2, 4,21,1,2,23,4,2,1,544.52,famous_female23.jpg
 8,22,2,2, 4,22,1,1,14,1,1,1,696.98,famous_male14.jpg
 8,22,2,2, 4,23,1,2, 8,4,2,1,673.35,famous_female08.jpg
 8,22,2,2, 4,24,1,1,20,3,1,1,633.33,famous_male20.jpg
 8,22,2,2, 5, 1,1,1,16,2,1,1,694.20,famous_male16.jpg
 8,22,2,2, 5, 2,1,2,24,3,2,1,588.95,famous_female24.jpg
 8,22,2,2, 5, 3,1,2, 7,3,2,1,766.15,famous_female07.jpg
 8,22,2,2, 5, 4,1,1,23,2,1,1,469.86,famous_male23.jpg
 8,22,2,2, 5, 5,1,1,21,4,1,1,501.25,famous_male21.jpg
 8,22,2,2, 5, 6,1,1,20,3,1,1,510.10,famous_male20.jpg
 8,22,2,2, 5, 7,1,2,20,4,2,1,494.11,famous_female20.jpg
 8,22,2,2, 5, 8,1,2, 4,2,2,1,526.07,famous_female04.jpg
 8,22,2,2, 5, 9,1,1,14,1,1,1,670.07,famous_male14.jpg
 8,22,2,2, 5,10,1,1,12,2,1,1,933.68,famous_male12.jpg
 8,22,2,2, 5,11,1,2,17,1,2,1,710.05,famous_female17.jpg
 8,22,2,2, 5,12,1,1, 6,3,1,1,790.03,famous_male06.jpg
 8,22,2,2, 5,13,1,1,13,4,1,1,494.04,famous_male13.jpg
 8,22,2,2, 5,14,1,1,17,4,1,1,461.61,famous_male17.jpg
 8,22,2,2, 5,15,1,1,18,1,1,1,749.98,famous_male18.jpg
 8,22,2,2, 5,16,1,2, 9,1,2,1,845.96,famous_female09.jpg
 8,22,2,2, 5,17,1,2,23,4,2,1,821.11,famous_female23.jpg
 8,22,2,2, 5,18,1,1,11,1,1,1,557.96,famous_male11.jpg
 8,22,2,2, 5,19,1,2,22,2,2,1,853.92,famous_female22.jpg
 8,22,2,2, 5,20,1,2,15,1,2,1,661.94,famous_female15.jpg
 8,22,2,2, 5,21,1,2, 5,3,2,1,653.91,famous_female05.jpg
 8,22,2,2, 5,22,1,1, 7,3,1,1,693.91,famous_male07.jpg
 8,22,2,2, 5,23,1,2, 8,4,2,1,549.88,famous_female08.jpg
 8,22,2,2, 5,24,1,2,21,2,2,1,461.86,famous_female21.jpg
 8,22,2,2, 6, 1,1,2,15,1,2,1,575.20,famous_female15.jpg
 8,22,2,2, 6, 2,1,1, 6,3,1,1,615.19,famous_male06.jpg
 8,22,2,2, 6, 3,1,2, 8,4,2,1,551.10,famous_female08.jpg
 8,22,2,2, 6, 4,1,1,12,2,1,1,678.77,famous_male12.jpg
 8,22,2,2, 6, 5,1,1,11,1,1,1,431.14,famous_male11.jpg
 8,22,2,2, 6, 6,1,1,16,2,1,1,430.76,famous_male16.jpg
 8,22,2,2, 6, 7,1,2, 5,3,2,1,470.26,famous_female05.jpg
 8,22,2,2, 6, 8,1,1,23,2,1,1,542.20,famous_male23.jpg
 8,22,2,2, 6, 9,1,1,13,4,1,1,679.12,famous_male13.jpg
 8,22,2,2, 6,10,1,1,17,4,1,1,567.08,famous_male17.jpg
 8,22,2,2, 6,11,1,1,20,3,1,1,695.07,famous_male20.jpg
 8,22,2,2, 6,12,1,2,20,4,2,1,455.05,famous_female20.jpg
 8,22,2,2, 6,13,1,1,18,1,1,1,575.03,famous_male18.jpg
 8,22,2,2, 6,14,1,2,24,3,2,1,430.17,famous_female24.jpg
 8,22,2,2, 6,15,1,2, 9,1,2,1,407.01,famous_female09.jpg
 8,22,2,2, 6,16,1,2, 7,3,2,1,375.00,famous_female07.jpg
 8,22,2,2, 6,17,1,1,14,1,1,1,550.55,famous_male14.jpg
 8,22,2,2, 6,18,1,2,17,1,2,1,878.96,famous_female17.jpg
 8,22,2,2, 6,19,1,2,22,2,2,1,550.94,famous_female22.jpg
 8,22,2,2, 6,20,1,2,21,2,1,2,526.94,famous_female21.jpg
 8,22,2,2, 6,21,1,1, 7,3,1,1,878.92,famous_male07.jpg
 8,22,2,2, 6,22,1,2, 4,2,2,1,493.63,famous_female04.jpg
 8,22,2,2, 6,23,1,1,21,4,1,1,950.53,famous_male21.jpg
 8,22,2,2, 6,24,1,2,23,4,2,1,518.92,famous_female23.jpg
 8,22,2,2, 7, 1,1,2, 4,2,2,1,594.26,famous_female04.jpg
 8,22,2,2, 7, 2,1,1,17,4,1,1,450.26,famous_male17.jpg
 8,22,2,2, 7, 3,1,2,24,3,2,1,505.38,famous_female24.jpg
 8,22,2,2, 7, 4,1,2, 8,4,2,1,577.82,famous_female08.jpg
 8,22,2,2, 7, 5,1,2, 5,3,2,1,481.60,famous_female05.jpg
 8,22,2,2, 7, 6,1,1,13,4,1,1,489.33,famous_male13.jpg
 8,22,2,2, 7, 7,1,1,21,4,1,1,368.97,famous_male21.jpg
 8,22,2,2, 7, 8,1,2, 7,3,2,1,537.30,famous_female07.jpg
 8,22,2,2, 7, 9,1,2,20,4,2,1,473.29,famous_female20.jpg
 8,22,2,2, 7,10,1,2,23,4,2,1,530.06,famous_female23.jpg
 8,22,2,2, 7,11,1,2, 9,1,2,1,426.16,famous_female09.jpg
 8,22,2,2, 7,12,1,2,22,2,2,1,370.11,famous_female22.jpg
 8,22,2,2, 7,13,1,2,15,1,2,1,393.24,famous_female15.jpg
 8,22,2,2, 7,14,1,1, 7,3,2,2,337.23,famous_male07.jpg
 8,22,2,2, 7,15,1,1,23,2,1,1,480.01,famous_male23.jpg
 8,22,2,2, 7,16,1,1,14,1,1,1,400.65,famous_male14.jpg
 8,22,2,2, 7,17,1,2,17,1,2,1,720.26,famous_female17.jpg
 8,22,2,2, 7,18,1,2,21,2,2,1,656.68,famous_female21.jpg
 8,22,2,2, 7,19,1,1,11,1,1,1,400.25,famous_male11.jpg
 8,22,2,2, 7,20,1,1,16,2,1,1,328.61,famous_male16.jpg
 8,22,2,2, 7,21,1,1,20,3,1,1,448.60,famous_male20.jpg
 8,22,2,2, 7,22,1,1,18,1,1,1,487.72,famous_male18.jpg
 8,22,2,2, 7,23,1,1,12,2,1,1,432.19,famous_male12.jpg
 8,22,2,2, 7,24,1,1, 6,3,1,1,471.72,famous_male06.jpg
 8,22,2,2, 8, 1,1,1,20,3,1,1,904.90,famous_male20.jpg
 8,22,2,2, 8, 2,1,1,13,4,1,1,447.95,famous_male13.jpg
 8,22,2,2, 8, 3,1,2,15,1,2,1,479.95,famous_female15.jpg
 8,22,2,2, 8, 4,1,2,22,2,2,1,704.78,famous_female22.jpg
 8,22,2,2, 8, 5,1,2, 5,3,2,1,504.77,famous_female05.jpg
 8,22,2,2, 8, 6,1,1,21,4,1,1,480.69,famous_male21.jpg
 8,22,2,2, 8, 7,1,1,16,2,1,1,792.75,famous_male16.jpg
 8,22,2,2, 8, 8,1,1,12,2,1,1,512.76,famous_male12.jpg
 8,22,2,2, 8, 9,1,2,21,2,2,1,560.73,famous_female21.jpg
 8,22,2,2, 8,10,1,2,24,3,2,1,431.85,famous_female24.jpg
 8,22,2,2, 8,11,1,2, 9,1,2,1,471.82,famous_female09.jpg
 8,22,2,2, 8,12,1,1,11,1,1,1,664.68,famous_male11.jpg
 8,22,2,2, 8,13,1,1, 6,3,1,1,695.81,famous_male06.jpg
 8,22,2,2, 8,14,1,1,18,1,1,1,391.48,famous_male18.jpg
 8,22,2,2, 8,15,1,2,17,1,2,1,456.63,famous_female17.jpg
 8,22,2,2, 8,16,1,1, 7,3,1,1,551.76,famous_male07.jpg
 8,22,2,2, 8,17,1,2,20,4,2,1,720.61,famous_female20.jpg
 8,22,2,2, 8,18,1,1,14,1,1,1,528.59,famous_male14.jpg
 8,22,2,2, 8,19,1,2, 7,3,1,2,480.62,famous_female07.jpg
 8,22,2,2, 8,20,1,1,17,4,1,1,431.70,famous_male17.jpg
 8,22,2,2, 8,21,1,2, 4,2,2,1,496.55,famous_female04.jpg
 8,22,2,2, 8,22,1,2, 8,4,2,1,455.69,famous_female08.jpg
 8,22,2,2, 8,23,1,1,23,2,1,1,600.52,famous_male23.jpg
 8,22,2,2, 8,24,1,2,23,4,2,1,552.52,famous_female23.jpg
 9,25,1,1, 1, 1,1,1, 1,2,0,0,0.00,unknown_male01.jpg
 9,25,1,1, 1, 2,1,1,21,3,1,1,238.07,unknown_male21.jpg
 9,25,1,1, 1, 3,1,2,13,1,2,1,806.07,unknown_female13.jpg
 9,25,1,1, 1, 4,1,2,15,1,2,1,686.09,unknown_female15.jpg
 9,25,1,1, 1, 5,1,1,17,1,1,1,598.06,unknown_male17.jpg
 9,25,1,1, 1, 6,1,1,15,4,1,1,894.06,unknown_male15.jpg
 9,25,1,1, 1, 7,1,1,11,2,1,1,942.04,unknown_male11.jpg
 9,25,1,1, 1, 8,1,2,19,3,2,1,813.80,unknown_female19.jpg
 9,25,1,1, 1, 9,1,2,17,3,2,1,981.99,unknown_female17.jpg
 9,25,1,1, 1,10,1,1,14,4,1,1,709.96,unknown_male14.jpg
 9,25,1,1, 1,11,1,2, 2,4,2,1,700.93,unknown_female02.jpg
 9,25,1,1, 1,12,1,1, 4,3,1,1,692.85,unknown_male04.jpg
 9,25,1,1, 1,13,1,2, 1,4,2,1,1117.96,unknown_female01.jpg
 9,25,1,1, 1,14,1,2,24,1,2,1,940.84,unknown_female24.jpg
 9,25,1,1, 1,15,1,2, 7,2,2,1,997.91,unknown_female07.jpg
 9,25,1,1, 1,16,1,1,13,3,1,1,933.89,unknown_male13.jpg
 9,25,1,1, 1,17,1,1,16,4,1,1,1253.86,unknown_male16.jpg
 9,25,1,1, 1,18,1,1, 9,2,1,1,789.86,unknown_male09.jpg
 9,25,1,1, 1,19,1,1,12,1,1,1,516.75,unknown_male12.jpg
 9,25,1,1, 1,20,1,1, 6,1,1,1,517.86,unknown_male06.jpg
 9,25,1,1, 1,21,1,2,16,2,2,1,637.82,unknown_female16.jpg
 9,25,1,1, 1,22,1,2,20,2,1,2,628.64,unknown_female20.jpg
 9,25,1,1, 1,23,1,2,22,4,2,1,821.79,unknown_female22.jpg
 9,25,1,1, 1,24,1,2, 3,3,2,1,597.81,unknown_female03.jpg
 9,25,1,1, 2, 1,1,2,17,3,2,1,1300.39,unknown_female17.jpg
 9,25,1,1, 2, 2,1,2,15,1,2,1,579.28,unknown_female15.jpg
 9,25,1,1, 2, 3,1,1, 4,3,1,1,772.35,unknown_male04.jpg
 9,25,1,1, 2, 4,1,1, 6,1,1,1,876.33,unknown_male06.jpg
 9,25,1,1, 2, 5,1,2,20,2,2,1,916.32,unknown_female20.jpg
 9,25,1,1, 2, 6,1,1,15,4,1,1,1075.20,unknown_male15.jpg
 9,25,1,1, 2, 7,1,1,11,2,1,1,988.30,unknown_male11.jpg
 9,25,1,1, 2, 8,1,2,13,1,2,1,956.28,unknown_female13.jpg
 9,25,1,1, 2, 9,1,2, 7,2,2,1,1068.27,unknown_female07.jpg
 9,25,1,1, 2,10,1,1,14,4,1,1,724.26,unknown_male14.jpg
 9,25,1,1, 2,11,1,1,13,3,1,1,788.24,unknown_male13.jpg
 9,25,1,1, 2,12,1,1,17,1,1,1,796.24,unknown_male17.jpg
 9,25,1,1, 2,13,1,2,24,1,2,1,940.22,unknown_female24.jpg
 9,25,1,1, 2,14,1,1,21,3,1,1,844.21,unknown_male21.jpg
 9,25,1,1, 2,15,1,2, 2,4,2,1,836.21,unknown_female02.jpg
 9,25,1,1, 2,16,1,2, 3,3,2,1,940.18,unknown_female03.jpg
 9,25,1,1, 2,17,1,1, 1,2,1,1,836.17,unknown_male01.jpg
 9,25,1,1, 2,18,1,2, 1,4,2,1,948.15,unknown_female01.jpg
 9,25,1,1, 2,19,1,2,19,3,2,1,932.14,unknown_female19.jpg
 9,25,1,1, 2,20,1,1, 9,2,1,1,1004.12,unknown_male09.jpg
 9,25,1,1, 2,21,1,1,16,4,1,1,1228.10,unknown_male16.jpg
 9,25,1,1, 2,22,1,1,12,1,1,1,1148.09,unknown_male12.jpg
 9,25,1,1, 2,23,1,2,22,4,2,1,884.08,unknown_female22.jpg
 9,25,1,1, 2,24,1,2,16,2,2,1,900.06,unknown_female16.jpg
 9,25,1,1, 3, 1,1,2, 1,4,2,1,824.25,unknown_female01.jpg
 9,25,1,1, 3, 2,1,2, 3,3,2,1,903.12,unknown_female03.jpg
 9,25,1,1, 3, 3,1,1,11,2,1,1,824.18,unknown_male11.jpg
 9,25,1,1, 3, 4,1,2,13,1,2,1,792.20,unknown_female13.jpg
 9,25,1,1, 3, 5,1,1, 6,1,1,1,968.18,unknown_male06.jpg
 9,25,1,1, 3, 6,1,1,12,1,1,1,808.13,unknown_male12.jpg
 9,25,1,1, 3, 7,1,2,22,4,2,1,848.12,unknown_female22.jpg
 9,25,1,1, 3, 8,1,1,13,3,1,1,1096.10,unknown_male13.jpg
 9,25,1,1, 3, 9,1,1,15,4,1,1,1000.10,unknown_male15.jpg
 9,25,1,1, 3,10,1,2,17,3,2,1,856.07,unknown_female17.jpg
 9,25,1,1, 3,11,1,1,14,4,1,1,832.07,unknown_male14.jpg
 9,25,1,1, 3,12,1,1,16,4,1,1,1063.01,unknown_male16.jpg
 9,25,1,1, 3,13,1,2,19,3,2,1,712.04,unknown_female19.jpg
 9,25,1,1, 3,14,1,1, 4,3,1,1,688.01,unknown_male04.jpg
 9,25,1,1, 3,15,1,1,21,3,1,1,864.01,unknown_male21.jpg
 9,25,1,1, 3,16,1,2,20,2,2,1,816.01,unknown_female20.jpg
 9,25,1,1, 3,17,1,2, 2,4,2,1,960.01,unknown_female02.jpg
 9,25,1,1, 3,18,1,1, 1,2,1,1,927.97,unknown_male01.jpg
 9,25,1,1, 3,19,1,2,15,1,2,1,999.95,unknown_female15.jpg
 9,25,1,1, 3,20,1,2,16,2,2,1,927.98,unknown_female16.jpg
 9,25,1,1, 3,21,1,2,24,1,2,1,1062.86,unknown_female24.jpg
 9,25,1,1, 3,22,1,1, 9,2,1,1,751.93,unknown_male09.jpg
 9,25,1,1, 3,23,1,2, 7,2,2,1,799.90,unknown_female07.jpg
 9,25,1,1, 3,24,1,1,17,1,1,1,759.90,unknown_male17.jpg
 9,25,1,1, 4, 1,1,1,11,2,1,1,628.50,unknown_male11.jpg
 9,25,1,1, 4, 2,1,1, 6,1,1,1,836.49,unknown_male06.jpg
 9,25,1,1, 4, 3,1,2, 2,4,2,1,1012.49,unknown_female02.jpg
 9,25,1,1, 4, 4,1,1, 9,2,1,1,844.43,unknown_male09.jpg
 9,25,1,1, 4, 5,1,2,15,1,2,1,780.42,unknown_female15.jpg
 9,25,1,1, 4, 6,1,2, 3,3,2,1,932.42,unknown_female03.jpg
 9,25,1,1, 4, 7,1,1,14,4,1,1,1075.34,unknown_male14.jpg
 9,25,1,1, 4, 8,1,2, 1,4,2,1,835.32,unknown_female01.jpg
 9,25,1,1, 4, 9,1,1,21,3,1,1,916.38,unknown_male21.jpg
 9,25,1,1, 4,10,1,2,24,1,2,1,1004.38,unknown_female24.jpg
 9,25,1,1, 4,11,1,1,15,4,1,1,860.36,unknown_male15.jpg
 9,25,1,1, 4,12,1,1, 4,3,1,1,788.37,unknown_male04.jpg
 9,25,1,1, 4,13,1,1,13,3,1,1,900.36,unknown_male13.jpg
 9,25,1,1, 4,14,1,1,17,1,1,1,804.32,unknown_male17.jpg
 9,25,1,1, 4,15,1,1,12,1,1,1,1028.30,unknown_male12.jpg
 9,25,1,1, 4,16,1,2, 7,2,2,1,779.25,unknown_female07.jpg
 9,25,1,1, 4,17,1,2,16,2,2,1,740.27,unknown_female16.jpg
 9,25,1,1, 4,18,1,1, 1,2,1,1,916.28,unknown_male01.jpg
 9,25,1,1, 4,19,1,2,17,3,2,1,1012.13,unknown_female17.jpg
 9,25,1,1, 4,20,1,1,16,4,1,1,1172.24,unknown_male16.jpg
 9,25,1,1, 4,21,1,2,20,2,2,1,1052.21,unknown_female20.jpg
 9,25,1,1, 4,22,1,2,13,1,2,1,1244.28,unknown_female13.jpg
 9,25,1,1, 4,23,1,2,22,4,2,1,868.20,unknown_female22.jpg
 9,25,1,1, 4,24,1,2,19,3,2,1,780.18,unknown_female19.jpg
 9,25,1,1, 5, 1,1,2,19,3,2,1,540.25,unknown_female19.jpg
 9,25,1,1, 5, 2,1,1, 1,2,1,1,772.19,unknown_male01.jpg
 9,25,1,1, 5, 3,1,1, 9,2,1,1,972.18,unknown_male09.jpg
 9,25,1,1, 5, 4,1,1,14,4,1,1,900.21,unknown_male14.jpg
 9,25,1,1, 5, 5,1,1,21,3,1,1,1028.19,unknown_male21.jpg
 9,25,1,1, 5, 6,1,1,16,4,1,1,972.14,unknown_male16.jpg
 9,25,1,1, 5, 7,1,1, 6,1,1,1,924.13,unknown_male06.jpg
 9,25,1,1, 5, 8,1,1,11,2,1,1,1212.11,unknown_male11.jpg
 9,25,1,1, 5, 9,1,2,15,1,2,1,740.10,unknown_female15.jpg
 9,25,1,1, 5,10,1,1,12,1,1,1,796.14,unknown_male12.jpg
 9,25,1,1, 5,11,1,2,24,1,2,1,828.09,unknown_female24.jpg
 9,25,1,1, 5,12,1,2,13,1,2,1,916.04,unknown_female13.jpg
 9,25,1,1, 5,13,1,2,22,4,2,1,732.02,unknown_female22.jpg
 9,25,1,1, 5,14,1,2, 1,4,2,1,1004.06,unknown_female01.jpg
 9,25,1,1, 5,15,1,1,13,3,1,1,820.06,unknown_male13.jpg
 9,25,1,1, 5,16,1,2,16,2,2,1,636.04,unknown_female16.jpg
 9,25,1,1, 5,17,1,1,15,4,1,1,739.99,unknown_male15.jpg
 9,25,1,1, 5,18,1,2,20,2,2,1,723.98,unknown_female20.jpg
 9,25,1,1, 5,19,1,1, 4,3,1,1,883.97,unknown_male04.jpg
 9,25,1,1, 5,20,1,2, 7,2,2,1,723.95,unknown_female07.jpg
 9,25,1,1, 5,21,1,2, 3,3,2,1,755.95,unknown_female03.jpg
 9,25,1,1, 5,22,1,2, 2,4,2,1,675.92,unknown_female02.jpg
 9,25,1,1, 5,23,1,1,17,1,1,1,667.88,unknown_male17.jpg
 9,25,1,1, 5,24,1,2,17,3,2,1,739.89,unknown_female17.jpg
 9,25,1,1, 6, 1,1,2, 7,2,2,1,625.11,unknown_female07.jpg
 9,25,1,1, 6, 2,1,1,21,3,1,1,441.02,unknown_male21.jpg
 9,25,1,1, 6, 3,1,2,13,1,2,1,1017.03,unknown_female13.jpg
 9,25,1,1, 6, 4,1,2, 1,4,2,1,840.98,unknown_female01.jpg
 9,25,1,1, 6, 5,1,2,20,2,2,1,761.01,unknown_female20.jpg
 9,25,1,1, 6, 6,1,2, 2,4,2,1,1056.96,unknown_female02.jpg
 9,25,1,1, 6, 7,1,1,13,3,1,1,760.95,unknown_male13.jpg
 9,25,1,1, 6, 8,1,2,22,4,2,1,872.96,unknown_female22.jpg
 9,25,1,1, 6, 9,1,1,16,4,1,1,752.92,unknown_male16.jpg
 9,25,1,1, 6,10,1,1,11,2,1,1,832.90,unknown_male11.jpg
 9,25,1,1, 6,11,1,2,16,2,2,1,576.93,unknown_female16.jpg
 9,25,1,1, 6,12,1,2,24,1,2,1,944.92,unknown_female24.jpg
 9,25,1,1, 6,13,1,1, 1,2,1,1,736.90,unknown_male01.jpg
 9,25,1,1, 6,14,1,2,19,3,2,1,800.86,unknown_female19.jpg
 9,25,1,1, 6,15,1,1, 6,1,1,1,1112.84,unknown_male06.jpg
 9,25,1,1, 6,16,1,1,14,4,1,1,792.83,unknown_male14.jpg
 9,25,1,1, 6,17,1,1,17,1,1,1,712.85,unknown_male17.jpg
 9,25,1,1, 6,18,1,1, 4,3,1,1,1088.82,unknown_male04.jpg
 9,25,1,1, 6,19,1,1, 9,2,2,2,1016.79,unknown_male09.jpg
 9,25,1,1, 6,20,1,2,17,3,2,1,672.77,unknown_female17.jpg
 9,25,1,1, 6,21,1,1,15,4,1,1,1096.77,unknown_male15.jpg
 9,25,1,1, 6,22,1,2,15,1,2,1,664.77,unknown_female15.jpg
 9,25,1,1, 6,23,1,1,12,1,1,1,736.77,unknown_male12.jpg
 9,25,1,1, 6,24,1,2, 3,3,2,1,551.65,unknown_female03.jpg
 9,25,1,1, 7, 1,1,2,20,2,2,1,626.95,unknown_female20.jpg
 9,25,1,1, 7, 2,1,1,15,4,1,1,634.35,unknown_male15.jpg
 9,25,1,1, 7, 3,1,1,21,3,1,1,682.90,unknown_male21.jpg
 9,25,1,1, 7, 4,1,2,22,4,2,1,682.89,unknown_female22.jpg
 9,25,1,1, 7, 5,1,2, 1,4,2,1,898.85,unknown_female01.jpg
 9,25,1,1, 7, 6,1,1,11,2,1,1,882.83,unknown_male11.jpg
 9,25,1,1, 7, 7,1,1, 1,2,1,1,826.82,unknown_male01.jpg
 9,25,1,1, 7, 8,1,2,13,1,2,1,674.85,unknown_female13.jpg
 9,25,1,1, 7, 9,1,2, 2,4,2,1,930.79,unknown_female02.jpg
 9,25,1,1, 7,10,1,1,17,1,1,1,650.78,unknown_male17.jpg
 9,25,1,1, 7,11,1,2,24,1,2,1,826.79,unknown_female24.jpg
 9,25,1,1, 7,12,1,2,19,3,2,1,666.77,unknown_female19.jpg
 9,25,1,1, 7,13,1,2,16,2,2,1,898.78,unknown_female16.jpg
 9,25,1,1, 7,14,1,2, 3,3,2,1,954.74,unknown_female03.jpg
 9,25,1,1, 7,15,1,1,14,4,1,1,714.72,unknown_male14.jpg
 9,25,1,1, 7,16,1,2,15,1,2,1,658.73,unknown_female15.jpg
 9,25,1,1, 7,17,1,1,12,1,1,1,1090.68,unknown_male12.jpg
 9,25,1,1, 7,18,1,1, 6,1,1,1,921.57,unknown_male06.jpg
 9,25,1,1, 7,19,1,1,13,3,1,1,834.66,unknown_male13.jpg
 9,25,1,1, 7,20,1,2, 7,2,2,1,738.68,unknown_female07.jpg
 9,25,1,1, 7,21,1,1,16,4,1,1,642.65,unknown_male16.jpg
 9,25,1,1, 7,22,1,2,17,3,2,1,658.62,unknown_female17.jpg
 9,25,1,1, 7,23,1,1, 4,3,1,1,882.64,unknown_male04.jpg
 9,25,1,1, 7,24,1,1, 9,2,1,1,1050.58,unknown_male09.jpg
 9,25,1,1, 8, 1,1,2, 7,2,2,1,591.30,unknown_female07.jpg
 9,25,1,1, 8, 2,1,2,20,2,2,1,871.30,unknown_female20.jpg
 9,25,1,1, 8, 3,1,2,19,3,2,1,551.28,unknown_female19.jpg
 9,25,1,1, 8, 4,1,2,24,1,2,1,774.17,unknown_female24.jpg
 9,25,1,1, 8, 5,1,2,15,1,2,1,654.14,unknown_female15.jpg
 9,25,1,1, 8, 6,1,2, 1,4,2,1,927.23,unknown_female01.jpg
 9,25,1,1, 8, 7,1,2,17,3,2,1,670.13,unknown_female17.jpg
 9,25,1,1, 8, 8,1,1, 9,2,1,1,998.16,unknown_male09.jpg
 9,25,1,1, 8, 9,1,1, 1,2,1,1,879.18,unknown_male01.jpg
 9,25,1,1, 8,10,1,2,16,2,2,1,759.18,unknown_female16.jpg
 9,25,1,1, 8,11,1,1,17,1,1,1,719.16,unknown_male17.jpg
 9,25,1,1, 8,12,1,1, 6,1,1,1,758.12,unknown_male06.jpg
 9,25,1,1, 8,13,1,1,13,3,1,1,527.12,unknown_male13.jpg
 9,25,1,1, 8,14,1,1,14,4,1,1,703.10,unknown_male14.jpg
 9,25,1,1, 8,15,1,1, 4,3,1,1,487.10,unknown_male04.jpg
 9,25,1,1, 8,16,1,1,16,4,1,1,959.07,unknown_male16.jpg
 9,25,1,1, 8,17,1,1,21,3,1,1,591.07,unknown_male21.jpg
 9,25,1,1, 8,18,1,1,11,2,1,1,1039.04,unknown_male11.jpg
 9,25,1,1, 8,19,1,2,13,1,2,1,941.30,unknown_female13.jpg
 9,25,1,1, 8,20,1,1,12,1,1,1,1021.25,unknown_male12.jpg
 9,25,1,1, 8,21,1,2, 2,4,2,1,1029.23,unknown_female02.jpg
 9,25,1,1, 8,22,1,2, 3,3,2,1,1053.21,unknown_female03.jpg
 9,25,1,1, 8,23,1,2,22,4,2,1,669.20,unknown_female22.jpg
 9,25,1,1, 8,24,1,1,15,4,1,1,733.21,unknown_male15.jpg
10,28,2,2, 1, 1,1,2, 8,3,2,1,874.27,famous_female08.jpg
10,28,2,2, 1, 2,1,1,13,4,1,1,633.55,famous_male13.jpg
10,28,2,2, 1, 3,1,1,21,2,1,1,937.53,famous_male21.jpg
10,28,2,2, 1, 4,1,2,11,1,2,1,825.53,famous_female11.jpg
10,28,2,2, 1, 5,1,1, 5,2,1,1,849.55,famous_male05.jpg
10,28,2,2, 1, 6,1,1, 6,4,1,1,961.51,famous_male06.jpg
10,28,2,2, 1, 7,1,1,23,3,1,1,1097.52,famous_male23.jpg
10,28,2,2, 1, 8,1,1,24,1,1,1,585.50,famous_male24.jpg
10,28,2,2, 1, 9,1,1,12,1,1,1,649.45,famous_male12.jpg
10,28,2,2, 1,10,1,2,13,3,2,1,625.44,famous_female13.jpg
10,28,2,2, 1,11,1,2,24,4,2,1,761.43,famous_female24.jpg
10,28,2,2, 1,12,1,2,23,4,2,1,625.41,famous_female23.jpg
10,28,2,2, 1,13,1,1, 8,3,1,1,561.40,famous_male08.jpg
10,28,2,2, 1,14,1,2,10,1,2,1,609.58,famous_female10.jpg
10,28,2,2, 1,15,1,2,19,2,2,1,713.37,famous_female19.jpg
10,28,2,2, 1,16,1,1,18,3,1,1,592.57,famous_male18.jpg
10,28,2,2, 1,17,1,2, 5,3,2,1,536.54,famous_female05.jpg
10,28,2,2, 1,18,1,2,21,1,2,1,593.37,famous_female21.jpg
10,28,2,2, 1,19,1,1, 4,1,1,1,632.94,famous_male04.jpg
10,28,2,2, 1,20,1,2, 3,4,2,1,712.92,famous_female03.jpg
10,28,2,2, 1,21,1,1,22,4,1,1,672.04,famous_male22.jpg
10,28,2,2, 1,22,1,2,16,2,2,1,729.28,famous_female16.jpg
10,28,2,2, 1,23,1,1,20,2,1,1,712.43,famous_male20.jpg
10,28,2,2, 1,24,1,2,22,2,2,1,848.33,famous_female22.jpg
10,28,2,2, 2, 1,1,1, 8,3,1,1,622.44,famous_male08.jpg
10,28,2,2, 2, 2,1,1,23,3,1,1,1030.39,famous_male23.jpg
10,28,2,2, 2, 3,1,2,10,1,2,1,526.40,famous_female10.jpg
10,28,2,2, 2, 4,1,2,19,2,2,1,709.04,famous_female19.jpg
10,28,2,2, 2, 5,1,2, 8,3,2,1,758.35,famous_female08.jpg
10,28,2,2, 2, 6,1,1, 6,4,1,1,637.96,famous_male06.jpg
10,28,2,2, 2, 7,1,1,24,1,1,1,701.38,famous_male24.jpg
10,28,2,2, 2, 8,1,1,22,4,1,1,742.31,famous_male22.jpg
10,28,2,2, 2, 9,1,1,12,1,1,1,597.92,famous_male12.jpg
10,28,2,2, 2,10,1,2,22,2,2,1,541.90,famous_female22.jpg
10,28,2,2, 2,11,1,1, 5,2,1,1,605.89,famous_male05.jpg
10,28,2,2, 2,12,1,2,24,4,2,1,581.89,famous_female24.jpg
10,28,2,2, 2,13,1,2, 3,4,2,1,636.92,famous_female03.jpg
10,28,2,2, 2,14,1,2,11,1,2,1,917.38,famous_female11.jpg
10,28,2,2, 2,15,1,2, 5,3,2,1,742.24,famous_female05.jpg
10,28,2,2, 2,16,1,2,16,2,2,1,550.22,famous_female16.jpg
10,28,2,2, 2,17,1,1,21,2,1,1,590.18,famous_male21.jpg
10,28,2,2, 2,18,1,2,23,4,2,1,534.17,famous_female23.jpg
10,28,2,2, 2,19,1,2,13,3,2,1,646.14,famous_female13.jpg
10,28,2,2, 2,20,1,1,18,3,1,1,534.17,famous_male18.jpg
10,28,2,2, 2,21,1,1,13,4,1,1,661.75,famous_male13.jpg
10,28,2,2, 2,22,1,2,21,1,2,1,668.85,famous_female21.jpg
10,28,2,2, 2,23,1,1,20,2,1,1,622.13,famous_male20.jpg
10,28,2,2, 2,24,1,1, 4,1,1,1,629.22,famous_male04.jpg
10,28,2,2, 3, 1,1,2, 5,3,2,1,508.35,famous_female05.jpg
10,28,2,2, 3, 2,1,2,19,2,2,1,636.32,famous_female19.jpg
10,28,2,2, 3, 3,1,1, 4,1,1,1,588.30,famous_male04.jpg
10,28,2,2, 3, 4,1,1,20,2,1,1,476.28,famous_male20.jpg
10,28,2,2, 3, 5,1,2, 3,4,2,1,611.42,famous_female03.jpg
10,28,2,2, 3, 6,1,2,23,4,2,1,771.05,famous_female23.jpg
10,28,2,2, 3, 7,1,2,22,2,2,1,716.25,famous_female22.jpg
10,28,2,2, 3, 8,1,1,13,4,1,1,572.23,famous_male13.jpg
10,28,2,2, 3, 9,1,1, 5,2,1,1,740.22,famous_male05.jpg
10,28,2,2, 3,10,1,1,18,3,1,1,707.34,famous_male18.jpg
10,28,2,2, 3,11,1,2,16,2,2,1,755.87,famous_female16.jpg
10,28,2,2, 3,12,1,2,11,1,2,1,699.32,famous_female11.jpg
10,28,2,2, 3,13,1,1,22,4,1,1,627.78,famous_male22.jpg
10,28,2,2, 3,14,1,2, 8,3,2,1,667.29,famous_female08.jpg
10,28,2,2, 3,15,1,2,21,1,2,1,803.46,famous_female21.jpg
10,28,2,2, 3,16,1,1,21,2,1,1,683.27,famous_male21.jpg
10,28,2,2, 3,17,1,2,13,3,2,1,683.25,famous_female13.jpg
10,28,2,2, 3,18,1,2,10,1,2,1,651.72,famous_female10.jpg
10,28,2,2, 3,19,1,1,12,1,1,1,812.08,famous_male12.jpg
10,28,2,2, 3,20,1,1,23,3,1,1,812.09,famous_male23.jpg
10,28,2,2, 3,21,1,1, 6,4,1,1,835.68,famous_male06.jpg
10,28,2,2, 3,22,1,2,24,4,2,1,708.05,famous_female24.jpg
