SID,Familiarity,RepTime,Trial,ImgCat,Resp,Corr,RT,ImgName
1,1,1,1,1,1,1,1623.66,famous_male06.jpg
1,1,1,2,2,2,1,519.65,famous_female10.jpg
1,2,1,3,2,2,1,519.63,unknown_female05.jpg
1,2,1,4,1,1,1,511.72,unknown_male18.jpg
1,2,1,5,1,1,1,543.61,unknown_male11.jpg
1,1,1,6,1,1,1,503.75,famous_male01.jpg
1,2,1,7,2,2,1,487.59,unknown_female14.jpg
1,1,1,8,2,2,1,487.63,famous_female13.jpg
1,2,1,9,1,1,1,535.62,unknown_male17.jpg
1,2,1,10,2,2,1,703.54,unknown_female19.jpg
1,1,1,11,1,1,1,639.53,famous_male20.jpg
1,1,1,12,1,1,1,583.54,famous_male13.jpg
1,2,1,13,1,1,1,727.5,unknown_male05.jpg
1,2,1,14,1,1,1,631.61,unknown_male19.jpg
1,1,1,15,1,1,1,871.5,famous_male03.jpg
1,2,1,16,2,2,1,543.06,unknown_female15.jpg
1,1,1,17,2,2,1,614.52,famous_female16.jpg
1,1,1,18,1,1,1,534.53,famous_male10.jpg
1,2,1,19,2,2,1,830.58,unknown_female06.jpg
1,1,1,20,2,2,1,839.4,famous_female03.jpg
1,1,1,21,2,2,1,830.51,famous_female05.jpg
1,1,1,22,2,2,1,911.38,famous_female09.jpg
1,2,1,23,2,2,1,1095.36,unknown_female09.jpg
1,2,1,24,1,1,1,431.35,unknown_male06.jpg
1,2,1,25,1,1,1,526.43,unknown_male08.jpg
1,1,1,26,2,2,1,471.32,famous_female20.jpg
1,2,1,27,2,2,1,502.91,unknown_female07.jpg
1,1,1,28,1,1,1,487.3,famous_male18.jpg
1,2,1,29,1,1,1,415.32,unknown_male14.jpg
1,1,1,30,2,2,1,455.27,famous_female12.jpg
1,1,1,31,1,1,1,407.27,famous_male12.jpg
1,1,1,32,2,2,1,501.93,famous_female04.jpg
1,2,1,33,1,1,1,390.36,unknown_male04.jpg
1,1,1,34,1,1,1,495.22,famous_male14.jpg
1,2,1,35,2,2,1,495.2,unknown_female20.jpg
1,2,1,36,1,1,1,471.19,unknown_male01.jpg
1,1,1,37,1,1,1,318.25,famous_male11.jpg
1,2,1,38,2,2,1,511.15,unknown_female04.jpg
1,1,1,39,2,2,1,687.15,famous_female01.jpg
1,2,1,40,2,2,1,631.13,unknown_female02.jpg
1,1,2,1,2,2,1,498.05,famous_female04.jpg
1,1,2,2,1,1,1,714.02,famous_male14.jpg
1,1,2,3,1,1,1,554.01,famous_male06.jpg
1,1,2,4,1,1,1,554,famous_male18.jpg
1,2,2,5,1,1,1,569.98,unknown_male18.jpg
1,2,2,6,2,2,1,609.97,unknown_female14.jpg
1,1,2,7,2,2,1,713.58,famous_female01.jpg
1,2,2,8,2,2,1,570.01,unknown_female06.jpg
1,2,2,9,2,2,1,593.93,unknown_female09.jpg
1,1,2,10,2,2,1,657.06,famous_female16.jpg
1,1,2,11,1,1,1,633.04,famous_male01.jpg
1,1,2,12,1,1,1,649.51,famous_male13.jpg
1,1,2,13,2,2,1,537.49,famous_female05.jpg
1,1,2,14,1,1,1,553.46,famous_male20.jpg
1,2,2,15,2,2,1,665.35,unknown_female02.jpg
1,2,2,16,1,1,1,625.46,unknown_male11.jpg
1,1,2,17,2,2,1,465.43,famous_female20.jpg
1,2,2,18,2,2,1,504.94,unknown_female19.jpg
1,2,2,19,1,1,1,513.4,unknown_male06.jpg
1,1,2,20,1,1,1,624.96,famous_male11.jpg
1,2,2,21,2,2,1,513.77,unknown_female07.jpg
1,1,2,22,1,1,1,433.35,famous_male12.jpg
1,2,2,23,1,1,1,577.72,unknown_male04.jpg
1,1,2,24,2,2,1,665.74,famous_female12.jpg
1,2,2,25,1,1,1,784.88,unknown_male05.jpg
1,1,2,26,2,2,1,673.7,famous_female13.jpg
1,2,2,27,2,2,1,473.7,unknown_female04.jpg
1,2,2,28,1,1,1,625.68,unknown_male19.jpg
1,2,2,29,2,2,1,521.68,unknown_female05.jpg
1,2,2,30,2,2,1,633.27,unknown_female20.jpg
1,2,2,31,1,1,1,521.23,unknown_male08.jpg
1,1,2,32,2,2,1,489.61,famous_female09.jpg
1,1,2,33,1,1,1,721.2,famous_male10.jpg
1,2,2,34,1,1,1,497.2,unknown_male14.jpg
1,2,2,35,2,2,1,473.21,unknown_female15.jpg
1,1,2,36,1,1,1,625.17,famous_male03.jpg
1,2,2,37,1,1,1,577.56,unknown_male01.jpg
1,1,2,38,2,2,1,721.17,famous_female10.jpg
1,1,2,39,2,2,1,576.67,famous_female03.jpg
1,2,2,40,1,1,1,536.65,unknown_male17.jpg
1,2,3,1,2,2,1,453.43,unknown_female19.jpg
1,2,3,2,2,2,1,477.04,unknown_female05.jpg
1,2,3,3,1,1,1,484.99,unknown_male14.jpg
1,2,3,4,1,1,1,485,unknown_male19.jpg
1,1,3,5,1,1,1,397,famous_male12.jpg
1,1,3,6,1,1,1,364.99,famous_male10.jpg
1,2,3,7,1,1,1,324.94,unknown_male18.jpg
1,1,3,8,1,1,1,300.93,famous_male11.jpg
1,2,3,9,1,1,1,413.32,unknown_male06.jpg
1,1,3,10,2,2,1,540.46,famous_female10.jpg
1,2,3,11,2,2,1,708.88,unknown_female14.jpg
1,2,3,12,1,1,1,492.44,unknown_male04.jpg
1,1,3,13,2,2,1,420.39,famous_female03.jpg
1,1,3,14,2,2,1,500.85,famous_female20.jpg
1,1,3,15,1,1,1,525.29,famous_male14.jpg
1,2,3,16,2,2,1,453.24,unknown_female04.jpg
1,2,3,17,1,1,1,396.81,unknown_male17.jpg
1,2,3,18,2,2,1,460.8,unknown_female07.jpg
1,1,3,19,1,1,1,605.18,famous_male13.jpg
1,1,3,20,2,2,1,429.2,famous_female13.jpg
1,1,3,21,1,1,1,396.75,famous_male03.jpg
1,1,3,22,1,1,1,461.15,famous_male06.jpg
1,2,3,23,1,1,1,668.73,unknown_male05.jpg
1,1,3,24,2,2,1,373.09,famous_female04.jpg
1,1,3,25,2,2,1,437.16,famous_female12.jpg
1,1,3,26,1,1,1,412.68,famous_male20.jpg
1,2,3,27,1,1,1,404.7,unknown_male01.jpg
1,1,3,28,1,1,1,437.07,famous_male18.jpg
1,1,3,29,1,1,1,477.05,famous_male01.jpg
1,2,3,30,1,1,1,572.15,unknown_male08.jpg
1,2,3,31,1,1,1,548.62,unknown_male11.jpg
1,1,3,32,2,2,1,452.6,famous_female05.jpg
1,2,3,33,2,2,1,508.99,unknown_female20.jpg
1,2,3,34,2,2,1,580.68,unknown_female09.jpg
1,1,3,35,2,2,1,508.97,famous_female16.jpg
1,1,3,36,2,2,1,548.93,famous_female01.jpg
1,2,3,37,2,2,1,596.93,unknown_female02.jpg
1,1,3,38,2,2,1,628.52,famous_female09.jpg
1,2,3,39,2,2,1,764.92,unknown_female06.jpg
1,2,3,40,2,2,1,484.04,unknown_female15.jpg
1,1,4,1,1,1,1,527.48,famous_male03.jpg
1,1,4,2,1,1,1,455.4,famous_male10.jpg
1,1,4,3,1,1,1,887.4,famous_male14.jpg
1,1,4,4,2,2,1,567.38,famous_female10.jpg
1,1,4,5,1,1,1,846.95,famous_male12.jpg
1,2,4,6,2,2,1,422.94,unknown_female04.jpg
1,1,4,7,2,2,1,399.33,famous_female05.jpg
1,1,4,8,2,2,1,406.51,famous_female01.jpg
1,1,4,9,2,2,1,647.31,famous_female04.jpg
1,1,4,10,1,1,1,446.91,famous_male11.jpg
1,2,4,11,2,2,1,510.43,unknown_female05.jpg
1,1,4,12,2,2,1,471.35,famous_female09.jpg
1,2,4,13,1,1,1,543.23,unknown_male05.jpg
1,2,4,14,1,1,1,407.24,unknown_male19.jpg
1,2,4,15,1,1,1,439.23,unknown_male18.jpg
1,1,4,16,1,1,1,390.82,famous_male20.jpg
1,1,4,17,2,2,1,543.2,famous_female13.jpg
1,1,4,18,2,2,1,518.79,famous_female16.jpg
1,2,4,19,2,2,1,511.18,unknown_female20.jpg
1,2,4,20,2,2,1,415.15,unknown_female07.jpg
1,1,4,21,2,2,1,407.17,famous_female12.jpg
1,2,4,22,2,2,1,447.13,unknown_female06.jpg
1,2,4,23,2,2,1,366.73,unknown_female19.jpg
1,2,4,24,1,1,1,550.6,unknown_male11.jpg
1,2,4,25,1,1,1,366.72,unknown_male04.jpg
1,2,4,26,2,2,1,470.21,unknown_female15.jpg
1,1,4,27,1,1,1,471.08,famous_male06.jpg
1,2,4,28,1,1,1,446.65,unknown_male14.jpg
1,2,4,29,1,1,1,414.65,unknown_male08.jpg
1,2,4,30,1,1,1,382.64,unknown_male06.jpg
1,1,4,31,1,1,1,463.01,famous_male18.jpg
1,1,4,32,2,2,1,511,famous_female03.jpg
1,2,4,33,2,2,1,534.99,unknown_female14.jpg
1,2,4,34,1,1,1,566.11,unknown_male17.jpg
1,2,4,35,2,2,1,750.59,unknown_female09.jpg
1,1,4,36,1,1,1,486.56,famous_male13.jpg
1,2,4,37,1,1,1,486.54,unknown_male01.jpg
1,2,4,38,2,2,1,526.05,unknown_female02.jpg
1,1,4,39,1,1,1,542.9,famous_male01.jpg
1,1,4,40,2,2,1,502.89,famous_female20.jpg
1,1,5,1,2,2,1,500.62,famous_female20.jpg
1,1,5,2,2,2,1,412.58,famous_female10.jpg
1,1,5,3,1,1,1,524.17,famous_male06.jpg
1,2,5,4,1,1,1,412.13,unknown_male14.jpg
1,2,5,5,2,2,1,420.17,unknown_female19.jpg
1,2,5,6,1,1,1,412.53,unknown_male18.jpg
1,2,5,7,2,2,1,444.51,unknown_female04.jpg
1,1,5,8,1,1,1,412.5,famous_male14.jpg
1,2,5,9,2,2,1,619.62,unknown_female06.jpg
1,1,5,10,1,1,1,404.48,famous_male18.jpg
1,1,5,11,2,2,1,428.51,famous_female09.jpg
1,2,5,12,1,1,1,420.46,unknown_male04.jpg
1,2,5,13,1,1,1,523.21,unknown_male19.jpg
1,2,5,14,2,2,1,460.41,unknown_female14.jpg
1,1,5,15,1,1,1,476.41,famous_male01.jpg
1,1,5,16,2,2,1,491.99,famous_female12.jpg
1,2,5,17,2,2,1,540.37,unknown_female07.jpg
1,1,5,18,1,1,1,411.51,famous_male20.jpg
1,1,5,19,1,1,1,467.13,famous_male11.jpg
1,1,5,20,1,1,1,628.34,famous_male13.jpg
1,2,5,21,1,1,1,323.92,unknown_male05.jpg
1,2,5,22,2,2,1,595.44,unknown_female02.jpg
1,1,5,23,1,1,1,363.45,famous_male03.jpg
1,1,5,24,2,2,1,492.28,famous_female04.jpg
1,2,5,25,2,2,1,460.28,unknown_female05.jpg
1,1,5,26,2,2,1,499.78,famous_female03.jpg
1,2,5,27,1,1,1,476.25,unknown_male17.jpg
1,1,5,28,2,2,1,651.83,famous_female01.jpg
1,2,5,29,2,2,1,452.24,unknown_female20.jpg
1,1,5,30,1,1,1,499.3,famous_male12.jpg
1,2,5,31,1,1,1,395.78,unknown_male01.jpg
1,2,5,32,2,2,1,411.77,unknown_female09.jpg
1,1,5,33,2,2,1,484.18,famous_female16.jpg
1,1,5,34,2,2,1,499.75,famous_female05.jpg
1,1,5,35,1,1,1,580.15,famous_male10.jpg
1,2,5,36,1,1,1,507.72,unknown_male08.jpg
1,2,5,37,1,1,1,516.12,unknown_male06.jpg
1,2,5,38,1,1,1,532.09,unknown_male11.jpg
1,1,5,39,2,2,1,540.09,famous_female13.jpg
1,2,5,40,2,2,1,515.68,unknown_female15.jpg
1,1,6,1,1,1,1,323.45,famous_male03.jpg
1,1,6,2,2,2,1,378.7,famous_female05.jpg
1,2,6,3,1,1,1,346.97,unknown_male05.jpg
1,2,6,4,2,2,1,474.95,unknown_female09.jpg
1,1,6,5,2,2,1,371.34,famous_female20.jpg
1,2,6,6,1,1,1,346.96,unknown_male18.jpg
1,1,6,7,1,1,1,371.32,famous_male11.jpg
1,2,6,8,2,2,1,498.9,unknown_female14.jpg
1,2,6,9,1,1,1,563.29,unknown_male11.jpg
1,2,6,10,2,2,1,459.28,unknown_female02.jpg
1,1,6,11,1,1,1,395.31,famous_male10.jpg
1,1,6,12,1,1,1,490.74,famous_male14.jpg
1,2,6,13,1,1,1,378.84,unknown_male06.jpg
1,2,6,14,1,1,1,418.83,unknown_male04.jpg
1,2,6,15,2,2,1,451.19,unknown_female04.jpg
1,1,6,16,2,2,1,539.18,famous_female12.jpg
1,2,6,17,2,2,1,434.81,unknown_female06.jpg
1,1,6,18,1,1,1,498.78,famous_male20.jpg
1,2,6,19,2,2,1,434.74,unknown_female20.jpg
1,2,6,20,1,1,1,571.15,unknown_male17.jpg
1,2,6,21,2,2,1,411.23,unknown_female05.jpg
1,1,6,22,1,1,1,378.72,famous_male13.jpg
1,2,6,23,1,1,1,547.11,unknown_male08.jpg
1,2,6,24,1,1,1,514.72,unknown_male01.jpg
1,1,6,25,1,1,1,410.7,famous_male06.jpg
1,1,6,26,2,2,1,410.95,famous_female13.jpg
1,1,6,27,2,2,1,763.05,famous_female04.jpg
1,1,6,28,2,2,1,667.11,famous_female10.jpg
1,1,6,29,1,1,1,555.09,famous_male18.jpg
1,2,6,30,2,2,1,579.01,unknown_female19.jpg
1,1,6,31,1,1,1,499.14,famous_male12.jpg
1,1,6,32,2,2,1,730.98,famous_female01.jpg
1,2,6,33,1,1,1,738.96,unknown_male14.jpg
1,1,6,34,2,2,1,562.56,famous_female09.jpg
1,1,6,35,2,2,1,562.94,famous_female16.jpg
1,2,6,36,1,1,1,522.93,unknown_male19.jpg
1,1,6,37,2,2,1,530.91,famous_female03.jpg
1,2,6,38,2,2,1,922.96,unknown_female07.jpg
1,1,6,39,1,1,1,458.48,famous_male01.jpg
1,2,6,40,2,2,1,466.89,unknown_female15.jpg
1,2,7,1,2,2,1,450.69,unknown_female07.jpg
1,2,7,2,1,1,1,426.72,unknown_male11.jpg
1,1,7,3,2,2,1,522.66,famous_female05.jpg
1,2,7,4,2,2,1,394.33,unknown_female20.jpg
1,1,7,5,2,2,1,465.39,famous_female04.jpg
1,2,7,6,1,1,1,562.22,unknown_male14.jpg
1,2,7,7,2,1,0,658.6,unknown_female06.jpg
1,2,7,8,1,1,1,410.56,unknown_male19.jpg
1,2,7,9,2,2,1,442.57,unknown_female19.jpg
1,1,7,10,2,2,1,442.55,famous_female09.jpg
1,1,7,11,1,1,1,458.54,famous_male11.jpg
1,1,7,12,2,2,1,442.55,famous_female16.jpg
1,1,7,13,1,1,1,418.51,famous_male13.jpg
1,1,7,14,2,2,1,402.52,famous_female01.jpg
1,1,7,15,1,1,1,578.49,famous_male06.jpg
1,1,7,16,2,2,1,410.49,famous_female13.jpg
1,2,7,17,2,2,1,402.48,unknown_female04.jpg
1,2,7,18,1,1,1,594.47,unknown_male01.jpg
1,1,7,19,1,1,1,602.45,famous_male01.jpg
1,2,7,20,1,1,1,618.48,unknown_male17.jpg
1,2,7,21,2,2,1,642.42,unknown_female02.jpg
1,1,7,22,2,2,1,490.4,famous_female10.jpg
1,1,7,23,2,2,1,434.37,famous_female12.jpg
1,2,7,24,1,1,1,378.37,unknown_male06.jpg
1,2,7,25,2,2,1,489.97,unknown_female15.jpg
1,1,7,26,1,1,1,386.33,famous_male20.jpg
1,2,7,27,1,1,1,458.34,unknown_male18.jpg
1,2,7,28,1,1,1,442.33,unknown_male04.jpg
1,1,7,29,1,1,1,498.31,famous_male14.jpg
1,2,7,30,1,1,1,498.3,unknown_male05.jpg
1,1,7,31,2,2,1,658.28,famous_female03.jpg
1,1,7,32,1,1,1,562.22,famous_male12.jpg
1,1,7,33,1,1,1,466.25,famous_male18.jpg
1,2,7,34,2,2,1,418.17,unknown_female14.jpg
1,1,7,35,2,2,1,442.23,famous_female20.jpg
1,1,7,36,1,1,1,450.28,famous_male10.jpg
1,2,7,37,2,2,1,442.21,unknown_female05.jpg
1,2,7,38,1,1,1,626.15,unknown_male08.jpg
1,2,7,39,2,2,1,586.17,unknown_female09.jpg
1,1,7,40,1,1,1,474.15,famous_male03.jpg
1,2,8,1,2,2,1,416.92,unknown_female05.jpg
1,2,8,2,1,1,1,376.86,unknown_male06.jpg
1,2,8,3,1,1,1,392.84,unknown_male08.jpg
1,1,8,4,1,1,1,384.83,famous_male12.jpg
1,1,8,5,2,2,1,384.82,famous_female10.jpg
1,1,8,6,2,2,1,408.8,famous_female01.jpg
1,1,8,7,1,1,1,416.79,famous_male10.jpg
1,1,8,8,1,1,1,496.75,famous_male03.jpg
1,1,8,9,1,1,1,400.7,famous_male18.jpg
1,2,8,10,1,1,1,344.73,unknown_male18.jpg
1,2,8,11,2,2,1,416.73,unknown_female14.jpg
1,2,8,12,1,1,1,440.79,unknown_male19.jpg
1,2,8,13,1,1,1,360.71,unknown_male04.jpg
1,1,8,14,1,1,1,480.7,famous_male14.jpg
1,1,8,15,2,2,1,544.67,famous_female03.jpg
1,2,8,16,2,2,1,488.67,unknown_female02.jpg
1,1,8,17,1,1,1,488.64,famous_male13.jpg
1,2,8,18,1,1,1,424.64,unknown_male05.jpg
1,1,8,19,1,1,1,464.64,famous_male11.jpg
1,2,8,20,2,2,1,496.7,unknown_female19.jpg
1,1,8,21,1,1,1,520.61,famous_male01.jpg
1,1,8,22,2,2,1,368.58,famous_female04.jpg
1,2,8,23,2,2,1,400.61,unknown_female04.jpg
1,2,8,24,1,1,1,400.57,unknown_male11.jpg
1,2,8,25,2,2,1,576.52,unknown_female07.jpg
1,2,8,26,2,2,1,568.52,unknown_female06.jpg
1,1,8,27,2,2,1,448.52,famous_female20.jpg
1,2,8,28,1,1,1,432.51,unknown_male14.jpg
1,1,8,29,1,1,1,488.48,famous_male20.jpg
1,1,8,30,2,2,1,440.47,famous_female13.jpg
1,1,8,31,2,2,1,432.47,famous_female09.jpg
1,1,8,32,1,1,1,440.45,famous_male06.jpg
1,2,8,33,2,2,1,568.43,unknown_female15.jpg
1,2,8,34,1,1,1,448.4,unknown_male01.jpg
1,1,8,35,2,2,1,384.41,famous_female12.jpg
1,2,8,36,1,1,1,424.41,unknown_male17.jpg
1,2,8,37,2,2,1,440.39,unknown_female09.jpg
1,1,8,38,2,2,1,408.38,famous_female05.jpg
1,2,8,39,2,2,1,480.36,unknown_female20.jpg
1,1,8,40,2,2,1,496.35,famous_female16.jpg
2,1,1,1,1,1,1,612.89,famous_male17.jpg
2,1,1,2,2,2,1,580.15,famous_female17.jpg
2,1,1,3,2,2,1,620.14,famous_female08.jpg
2,1,1,4,1,1,1,588.15,famous_male03.jpg
2,2,1,5,2,2,1,540.14,unknown_female04.jpg
2,2,1,6,2,2,1,532.17,unknown_female14.jpg
2,1,1,7,2,2,1,588.08,famous_female06.jpg
2,2,1,8,1,1,1,516.11,unknown_male17.jpg
2,2,1,9,2,2,1,468.06,unknown_female20.jpg
2,2,1,10,1,1,1,475.02,unknown_male04.jpg
2,1,1,11,1,1,1,532.02,famous_male04.jpg
2,2,1,12,1,1,1,539,unknown_male07.jpg
2,2,1,13,1,1,1,500.03,unknown_male14.jpg
2,1,1,14,2,2,1,466.99,famous_female13.jpg
2,2,1,15,2,2,1,474.96,unknown_female07.jpg
2,2,1,16,1,1,1,514.83,unknown_male03.jpg
2,2,1,17,1,1,1,427.94,unknown_male18.jpg
2,2,1,18,2,2,1,506.8,unknown_female03.jpg
2,2,1,19,2,2,1,499.93,unknown_female11.jpg
2,1,1,20,1,1,1,475.9,famous_male14.jpg
2,1,1,21,1,2,0,491.81,famous_male08.jpg
2,1,1,22,1,1,1,643.88,famous_male16.jpg
2,2,1,23,2,2,1,603.85,unknown_female02.jpg
2,1,1,24,1,1,1,507.89,famous_male12.jpg
2,1,1,25,2,2,1,635.83,famous_female19.jpg
2,1,1,26,1,1,1,483.87,famous_male07.jpg
2,1,1,27,2,2,1,610.53,famous_female12.jpg
2,1,1,28,2,2,1,555.82,famous_female02.jpg
2,1,1,29,2,2,1,531.8,famous_female09.jpg
2,1,1,30,2,2,1,715.81,famous_female01.jpg
2,1,1,31,1,1,1,490.43,famous_male15.jpg
2,2,1,32,1,1,1,547.75,unknown_male01.jpg
2,2,1,33,1,1,1,474.86,unknown_male08.jpg
2,1,1,34,2,2,1,538.41,famous_female16.jpg
2,2,1,35,2,2,1,491.63,unknown_female12.jpg
2,1,1,36,1,1,1,634.42,famous_male10.jpg
2,2,1,37,2,2,1,611.71,unknown_female17.jpg
2,2,1,38,2,2,1,499.61,unknown_female06.jpg
2,2,1,39,1,1,1,451.66,unknown_male02.jpg
2,2,1,40,1,1,1,435.65,unknown_male19.jpg
2,2,2,1,2,2,1,547.99,unknown_female04.jpg
2,2,2,2,1,1,1,435.98,unknown_male08.jpg
2,2,2,3,2,2,1,354.69,unknown_female12.jpg
2,2,2,4,1,1,1,427.95,unknown_male04.jpg
2,1,2,5,2,2,1,387.94,famous_female13.jpg
2,1,2,6,2,2,1,562.71,famous_female12.jpg
2,2,2,7,2,2,1,442.57,unknown_female11.jpg
2,1,2,8,1,1,1,411.89,famous_male04.jpg
2,2,2,9,1,1,1,395.04,unknown_male02.jpg
2,1,2,10,2,2,1,419.87,famous_female01.jpg
2,1,2,11,1,1,1,451.86,famous_male03.jpg
2,2,2,12,2,2,1,451.85,unknown_female07.jpg
2,1,2,13,2,2,1,451.86,famous_female09.jpg
2,2,2,14,1,1,1,763.81,unknown_male07.jpg
2,1,2,15,1,1,1,539.8,famous_male08.jpg
2,2,2,16,2,2,1,531.79,unknown_female17.jpg
2,2,2,17,2,2,1,467.77,unknown_female20.jpg
2,2,2,18,1,1,1,483.76,unknown_male18.jpg
2,1,2,19,1,1,1,395.74,famous_male10.jpg
2,1,2,20,1,1,1,579.74,famous_male12.jpg
2,1,2,21,1,1,1,595.62,famous_male17.jpg
2,2,2,22,2,2,1,731.71,unknown_female03.jpg
2,1,2,23,1,1,1,515.67,famous_male15.jpg
2,1,2,24,1,1,1,419.67,famous_male14.jpg
2,2,2,25,2,2,1,531.64,unknown_female06.jpg
2,1,2,26,2,2,1,459.65,famous_female06.jpg
2,1,2,27,2,2,1,483.65,famous_female19.jpg
2,1,2,28,2,2,1,411.7,famous_female08.jpg
2,1,2,29,2,2,1,467.61,famous_female17.jpg
2,1,2,30,1,1,1,483.6,famous_male07.jpg
2,1,2,31,2,2,1,451.58,famous_female16.jpg
2,2,2,32,1,1,1,515.57,unknown_male03.jpg
2,1,2,33,1,1,1,547.56,famous_male16.jpg
2,2,2,34,1,1,1,451.45,unknown_male17.jpg
2,2,2,35,1,1,1,427.53,unknown_male14.jpg
2,1,2,36,2,2,1,483.52,famous_female02.jpg
2,2,2,37,1,1,1,507.51,unknown_male19.jpg
2,2,2,38,2,2,1,483.49,unknown_female14.jpg
2,2,2,39,1,1,1,507.47,unknown_male01.jpg
2,2,2,40,2,2,1,547.47,unknown_female02.jpg
2,2,3,1,2,2,1,518.38,unknown_female06.jpg
2,1,3,2,2,2,1,486.36,famous_female16.jpg
2,1,3,3,2,2,1,438.39,famous_female17.jpg
2,2,3,4,2,2,1,414.32,unknown_female02.jpg
2,2,3,5,2,2,1,462.32,unknown_female03.jpg
2,1,3,6,1,1,1,446.32,famous_male16.jpg
2,2,3,7,1,1,1,582.31,unknown_male07.jpg
2,1,3,8,1,1,1,430.29,famous_male10.jpg
2,2,3,9,1,1,1,382.32,unknown_male08.jpg
2,1,3,10,2,2,1,438.29,famous_female08.jpg
2,1,3,11,1,1,1,414.25,famous_male14.jpg
2,1,3,12,1,1,1,486.24,famous_male07.jpg
2,1,3,13,2,2,1,502.16,famous_female09.jpg
2,1,3,14,1,1,1,446.19,famous_male12.jpg
2,1,3,15,1,1,1,606.2,famous_male08.jpg
2,2,3,16,1,1,1,510.08,unknown_male14.jpg
2,2,3,17,2,2,1,462.11,unknown_female14.jpg
2,2,3,18,1,1,1,446.09,unknown_male18.jpg
2,2,3,19,2,2,1,358.15,unknown_female04.jpg
2,2,3,20,1,1,1,462.14,unknown_male17.jpg
2,1,3,21,2,2,1,446.1,famous_female13.jpg
2,2,3,22,1,1,1,374.1,unknown_male01.jpg
2,2,3,23,2,2,1,438.09,unknown_female12.jpg
2,1,3,24,1,1,1,446.05,famous_male15.jpg
2,2,3,25,1,1,1,438.06,unknown_male03.jpg
2,1,3,26,1,1,1,398.05,famous_male17.jpg
2,1,3,27,2,2,1,478.04,famous_female02.jpg
2,2,3,28,2,2,1,478,unknown_female07.jpg
2,2,3,29,2,2,1,430.01,unknown_female17.jpg
2,1,3,30,2,2,1,389.9,famous_female01.jpg
2,2,3,31,1,1,1,470,unknown_male19.jpg
2,2,3,32,1,1,1,405.98,unknown_male02.jpg
2,1,3,33,1,1,1,390.04,famous_male03.jpg
2,1,3,34,1,1,1,365.96,famous_male04.jpg
2,1,3,35,2,2,1,525.93,famous_female19.jpg
2,1,3,36,2,2,1,493.93,famous_female12.jpg
2,2,3,37,2,2,1,477.89,unknown_female11.jpg
2,1,3,38,2,2,1,477.9,famous_female06.jpg
2,2,3,39,1,1,1,549.93,unknown_male04.jpg
2,2,3,40,2,2,1,565.86,unknown_female20.jpg
2,2,4,1,1,1,1,478.74,unknown_male04.jpg
2,1,4,2,1,1,1,430.76,famous_male10.jpg
2,1,4,3,2,2,1,430.74,famous_female09.jpg
2,2,4,4,2,2,1,446.72,unknown_female03.jpg
2,1,4,5,2,2,1,422.69,famous_female06.jpg
2,2,4,6,2,2,1,334.69,unknown_female12.jpg
2,1,4,7,2,2,1,381.38,famous_female02.jpg
2,1,4,8,2,2,1,358.56,famous_female08.jpg
2,2,4,9,1,1,1,710.64,unknown_male18.jpg
2,1,4,10,1,1,1,454.64,famous_male16.jpg
2,2,4,11,1,1,1,422.63,unknown_male19.jpg
2,2,4,12,1,1,1,486.53,unknown_male03.jpg
2,2,4,13,2,2,1,502.49,unknown_female02.jpg
2,2,4,14,1,1,1,422.6,unknown_male07.jpg
2,1,4,15,1,1,1,414.59,famous_male14.jpg
2,1,4,16,2,2,1,446.56,famous_female13.jpg
2,1,4,17,1,1,1,397.25,famous_male08.jpg
2,1,4,18,2,2,1,582.54,famous_female12.jpg
2,1,4,19,1,1,1,382.52,famous_male07.jpg
2,2,4,20,2,2,1,398.51,unknown_female20.jpg
2,1,4,21,1,1,1,454.47,famous_male04.jpg
2,2,4,22,2,2,1,646.49,unknown_female11.jpg
2,2,4,23,1,1,1,558.46,unknown_male14.jpg
2,1,4,24,2,2,1,662.45,famous_female16.jpg
2,2,4,25,1,1,1,446.39,unknown_male17.jpg
2,2,4,26,1,1,1,398.42,unknown_male02.jpg
2,2,4,27,1,1,1,446.41,unknown_male01.jpg
2,2,4,28,2,2,1,726.4,unknown_female06.jpg
2,1,4,29,2,2,1,758.37,famous_female19.jpg
2,1,4,30,2,2,1,622.39,famous_female17.jpg
2,2,4,31,2,2,1,510.39,unknown_female04.jpg
2,2,4,32,2,2,1,510.34,unknown_female14.jpg
2,2,4,33,1,1,1,430.33,unknown_male08.jpg
2,1,4,34,1,1,1,510.32,famous_male15.jpg
2,1,4,35,1,1,1,478.3,famous_male17.jpg
2,1,4,36,1,1,1,806.29,famous_male03.jpg
2,2,4,37,2,2,1,454.27,unknown_female07.jpg
2,2,4,38,2,2,1,398.21,unknown_female17.jpg
2,1,4,39,2,2,1,350.22,famous_female01.jpg
2,1,4,40,1,1,1,406.11,famous_male12.jpg
2,1,5,1,2,2,1,431.84,famous_female08.jpg
2,2,5,2,2,2,1,551.83,unknown_female14.jpg
2,1,5,3,2,2,1,423.82,famous_female16.jpg
2,2,5,4,2,2,1,367.8,unknown_female03.jpg
2,2,5,5,2,2,1,327.8,unknown_female02.jpg
2,1,5,6,2,2,1,367.75,famous_female12.jpg
2,2,5,7,1,1,1,431.74,unknown_male07.jpg
2,1,5,8,1,1,1,407.74,famous_male10.jpg
2,1,5,9,1,1,1,463.74,famous_male03.jpg
2,1,5,10,2,2,1,479.73,famous_female17.jpg
2,2,5,11,1,1,1,447.69,unknown_male03.jpg
2,1,5,12,1,1,1,455.66,famous_male08.jpg
2,1,5,13,2,2,1,495.68,famous_female02.jpg
2,2,5,14,2,2,1,471.64,unknown_female07.jpg
2,2,5,15,1,1,1,534.4,unknown_male19.jpg
2,2,5,16,1,1,1,567.61,unknown_male08.jpg
2,2,5,17,2,2,1,407.62,unknown_female11.jpg
2,2,5,18,1,1,1,391.61,unknown_male02.jpg
2,1,5,19,2,2,1,431.6,famous_female06.jpg
2,2,5,20,1,1,1,471.59,unknown_male01.jpg
2,1,5,21,2,2,1,471.54,famous_female01.jpg
2,2,5,22,2,2,1,423.57,unknown_female04.jpg
2,2,5,23,2,2,1,351.62,unknown_female06.jpg
2,2,5,24,1,1,1,423.45,unknown_male17.jpg
2,2,5,25,1,1,1,463.56,unknown_male04.jpg
2,1,5,26,1,1,1,407.49,famous_male14.jpg
2,2,5,27,2,2,1,447.49,unknown_female17.jpg
2,2,5,28,2,2,1,375.51,unknown_female12.jpg
2,1,5,29,2,2,1,391.47,famous_female09.jpg
2,1,5,30,1,1,1,367.44,famous_male04.jpg
2,1,5,31,1,1,1,375.44,famous_male07.jpg
2,2,5,32,1,1,1,399.49,unknown_male14.jpg
2,1,5,33,1,1,1,359.41,famous_male17.jpg
2,2,5,34,2,2,1,406.17,unknown_female20.jpg
2,1,5,35,1,1,1,359.39,famous_male16.jpg
2,1,5,36,1,1,1,391.36,famous_male15.jpg
2,1,5,37,2,2,1,335.36,famous_female13.jpg
2,2,5,38,1,1,1,383.33,unknown_male18.jpg
2,1,5,39,1,1,1,367.33,famous_male12.jpg
2,1,5,40,2,2,1,415.3,famous_female19.jpg
2,1,6,1,1,1,1,464.91,famous_male14.jpg
2,2,6,2,1,1,1,392.9,unknown_male07.jpg
2,1,6,3,2,2,1,360.88,famous_female13.jpg
2,1,6,4,1,1,1,368.88,famous_male07.jpg
2,1,6,5,2,2,1,352.86,famous_female01.jpg
2,2,6,6,2,2,1,488.86,unknown_female17.jpg
2,1,6,7,1,1,1,336.85,famous_male16.jpg
2,2,6,8,1,1,1,496.84,unknown_male19.jpg
2,1,6,9,1,1,1,1016.8,famous_male12.jpg
2,2,6,10,2,2,1,424.79,unknown_female03.jpg
2,1,6,11,2,2,1,408.77,famous_female17.jpg
2,2,6,12,2,2,1,408.76,unknown_female11.jpg
2,1,6,13,1,1,1,408.74,famous_male10.jpg
2,1,6,14,2,2,1,488.75,famous_female19.jpg
2,1,6,15,2,2,1,440.73,famous_female08.jpg
2,2,6,16,1,1,1,400.64,unknown_male02.jpg
2,1,6,17,1,1,1,400.63,famous_male03.jpg
2,2,6,18,2,2,1,424.69,unknown_female07.jpg
2,2,6,19,2,2,1,456.67,unknown_female02.jpg
2,1,6,20,1,1,1,400.62,famous_male08.jpg
2,2,6,21,1,1,1,336.65,unknown_male01.jpg
2,2,6,22,2,2,1,392.61,unknown_female12.jpg
2,1,6,23,2,2,1,432.61,famous_female16.jpg
2,2,6,24,2,2,1,424.66,unknown_female14.jpg
2,2,6,25,2,2,1,528.59,unknown_female04.jpg
2,2,6,26,2,2,1,360.58,unknown_female06.jpg
2,1,6,27,1,1,1,432.57,famous_male17.jpg
2,1,6,28,2,2,1,447.28,famous_female09.jpg
2,2,6,29,1,1,1,400.56,unknown_male17.jpg
2,2,6,30,1,1,1,384.52,unknown_male18.jpg
2,2,6,31,1,1,1,544.52,unknown_male04.jpg
2,2,6,32,1,1,1,488.5,unknown_male03.jpg
2,2,6,33,1,1,1,336.5,unknown_male08.jpg
2,1,6,34,1,1,1,336.47,famous_male04.jpg
2,2,6,35,1,1,1,344.44,unknown_male14.jpg
2,2,6,36,2,2,1,352.45,unknown_female20.jpg
2,1,6,37,2,2,1,392.42,famous_female06.jpg
2,1,6,38,2,2,1,408.42,famous_female02.jpg
2,1,6,39,1,1,1,456.4,famous_male15.jpg
2,1,6,40,2,2,1,432.45,famous_female12.jpg
2,2,7,1,1,1,1,523.95,unknown_male07.jpg
2,1,7,2,2,2,1,411.92,famous_female09.jpg
2,1,7,3,1,1,1,427.88,famous_male16.jpg
2,1,7,4,1,1,1,443.94,famous_male07.jpg
2,2,7,5,2,2,1,427.94,unknown_female11.jpg
2,1,7,6,1,1,1,363.85,famous_male08.jpg
2,1,7,7,1,1,1,363.84,famous_male12.jpg
2,2,7,8,1,1,1,395.86,unknown_male02.jpg
2,2,7,9,1,1,1,323.81,unknown_male19.jpg
2,1,7,10,1,1,1,371.8,famous_male17.jpg
2,1,7,11,2,2,1,419.8,famous_female13.jpg
2,1,7,12,2,1,0,427.78,famous_female16.jpg
2,1,7,13,1,1,1,499.75,famous_male04.jpg
2,2,7,14,1,1,1,315.74,unknown_male03.jpg
2,2,7,15,2,2,1,451.74,unknown_female14.jpg
2,2,7,16,1,1,1,531.7,unknown_male17.jpg
2,1,7,17,2,2,1,475.65,famous_female12.jpg
2,1,7,18,2,2,1,387.59,famous_female08.jpg
2,2,7,19,1,1,1,483.68,unknown_male14.jpg
2,2,7,20,2,2,1,515.67,unknown_female17.jpg
2,2,7,21,2,2,1,411.65,unknown_female04.jpg
2,2,7,22,1,1,1,467.56,unknown_male01.jpg
2,1,7,23,2,2,1,483.63,famous_female17.jpg
2,2,7,24,2,2,1,411.61,unknown_female06.jpg
2,1,7,25,1,1,1,411.61,famous_male03.jpg
2,1,7,26,1,1,1,403.6,famous_male15.jpg
2,2,7,27,2,2,1,459.58,unknown_female20.jpg
2,1,7,28,2,2,1,419.57,famous_female06.jpg
2,2,7,29,1,1,1,363.56,unknown_male18.jpg
2,2,7,30,1,1,1,371.54,unknown_male08.jpg
2,1,7,31,2,2,1,491.46,famous_female19.jpg
2,2,7,32,1,1,1,307.51,unknown_male04.jpg
2,2,7,33,2,2,1,507.56,unknown_female07.jpg
2,1,7,34,2,2,1,435.5,famous_female01.jpg
2,2,7,35,2,2,1,443.44,unknown_female12.jpg
2,1,7,36,2,2,1,475.43,famous_female02.jpg
2,2,7,37,2,2,1,659.44,unknown_female02.jpg
2,1,7,38,1,1,1,482.16,famous_male10.jpg
2,1,7,39,1,1,1,499.41,famous_male14.jpg
2,2,7,40,2,2,1,507.39,unknown_female03.jpg
2,1,8,1,1,1,1,547.6,famous_male10.jpg
2,1,8,2,1,1,1,507.59,famous_male15.jpg
2,1,8,3,1,1,1,451.56,famous_male17.jpg
2,1,8,4,2,2,1,531.59,famous_female12.jpg
2,2,8,5,2,2,1,395.55,unknown_female03.jpg
2,2,8,6,1,1,1,466.13,unknown_male02.jpg
2,1,8,7,1,1,1,458.12,famous_male16.jpg
2,2,8,8,2,2,1,450.11,unknown_female06.jpg
2,2,8,9,2,2,1,354.07,unknown_female14.jpg
2,1,8,10,2,2,1,354.09,famous_female13.jpg
2,1,8,11,2,2,1,336.79,famous_female09.jpg
2,2,8,12,2,2,1,362.06,unknown_female07.jpg
2,2,8,13,2,2,1,330.02,unknown_female02.jpg
2,1,8,14,2,2,1,386.05,famous_female19.jpg
2,1,8,15,2,2,1,418.03,famous_female06.jpg
2,2,8,16,2,2,1,298.03,unknown_female12.jpg
2,1,8,17,1,2,0,257.99,famous_male03.jpg
2,1,8,18,2,2,1,648.82,famous_female16.jpg
2,1,8,19,1,1,1,553.97,famous_male07.jpg
2,1,8,20,2,2,1,513.95,famous_female01.jpg
2,2,8,21,1,1,1,489.82,unknown_male14.jpg
2,2,8,22,1,1,1,545.93,unknown_male04.jpg
2,2,8,23,1,1,1,449.91,unknown_male03.jpg
2,2,8,24,2,2,1,513.9,unknown_female20.jpg
2,2,8,25,1,1,1,417.89,unknown_male08.jpg
2,1,8,26,2,2,1,545.88,famous_female08.jpg
2,1,8,27,1,1,1,465.85,famous_male12.jpg
2,2,8,28,1,1,1,433.84,unknown_male07.jpg
2,1,8,29,1,1,1,473.81,famous_male14.jpg
2,2,8,30,1,1,1,417.81,unknown_male17.jpg
2,2,8,31,2,2,1,481.8,unknown_female04.jpg
2,2,8,32,1,1,1,401.78,unknown_male01.jpg
2,1,8,33,2,2,1,449.77,famous_female02.jpg
2,2,8,34,1,1,1,393.76,unknown_male18.jpg
2,2,8,35,2,2,1,401.75,unknown_female17.jpg
2,1,8,36,2,2,1,409.73,famous_female17.jpg
2,2,8,37,1,1,1,409.73,unknown_male19.jpg
2,1,8,38,1,1,1,529.63,famous_male04.jpg
2,2,8,39,2,2,1,489.58,unknown_female11.jpg
2,1,8,40,1,1,1,425.72,famous_male08.jpg
3,1,1,1,1,0,0,0,famous_male10.jpg
3,2,1,2,1,1,1,524.51,unknown_male11.jpg
3,2,1,3,1,1,1,508.5,unknown_male10.jpg
3,1,1,4,2,2,1,539.22,famous_female14.jpg
3,2,1,5,1,1,1,412.49,unknown_male07.jpg
3,2,1,6,2,2,1,499.19,unknown_female11.jpg
3,2,1,7,2,2,1,555.13,unknown_female13.jpg
3,2,1,8,2,2,1,435.16,unknown_female09.jpg
3,1,1,9,2,2,1,548.42,famous_female18.jpg
3,2,1,10,2,2,1,612.42,unknown_female04.jpg
3,1,1,11,1,1,1,444.38,famous_male15.jpg
3,2,1,12,2,2,1,523.11,unknown_female05.jpg
3,1,1,13,1,1,1,508.35,famous_male20.jpg
3,1,1,14,2,2,1,476.35,famous_female07.jpg
3,1,1,15,1,1,1,500.35,famous_male16.jpg
3,1,1,16,2,2,1,620.31,famous_female09.jpg
3,1,1,17,1,1,1,500.3,famous_male12.jpg
3,2,1,18,1,1,1,636.27,unknown_male03.jpg
3,1,1,19,2,2,1,460.29,famous_female20.jpg
3,2,1,20,1,1,1,396.2,unknown_male01.jpg
3,1,1,21,1,1,1,482.97,famous_male07.jpg
3,2,1,22,2,2,1,660.23,unknown_female02.jpg
3,2,1,23,1,1,1,786.95,unknown_male13.jpg
3,2,1,24,1,1,1,420.2,unknown_male06.jpg
3,2,1,25,2,2,1,508.19,unknown_female08.jpg
3,1,1,26,1,1,1,532.15,famous_male19.jpg
3,1,1,27,2,2,1,572.15,famous_female19.jpg
3,1,1,28,1,1,1,516.17,famous_male04.jpg
3,1,1,29,1,1,1,620.15,famous_male01.jpg
3,2,1,30,2,2,1,500.14,unknown_female17.jpg
3,2,1,31,2,2,1,644.13,unknown_female06.jpg
3,2,1,32,1,1,1,500.11,unknown_male20.jpg
3,1,1,33,2,2,1,572.22,famous_female05.jpg
3,2,1,34,1,1,1,612.05,unknown_male09.jpg
3,2,1,35,1,1,1,643.65,unknown_male02.jpg
3,1,1,36,2,2,1,444.05,famous_female06.jpg
3,1,1,37,2,1,0,474.75,famous_female16.jpg
3,2,1,38,2,2,1,610.73,unknown_female16.jpg
3,1,1,39,1,1,1,770.65,famous_male09.jpg
3,1,1,40,2,2,1,498.71,famous_female03.jpg
3,1,2,1,2,2,1,1495.36,famous_female19.jpg
3,2,2,2,1,1,1,919.36,unknown_male06.jpg
3,1,2,3,2,2,1,487.35,famous_female07.jpg
3,1,2,4,1,1,1,502.1,famous_male19.jpg
3,1,2,5,1,1,1,527.31,famous_male10.jpg
3,2,2,6,2,2,1,431.5,unknown_female11.jpg
3,1,2,7,1,1,1,453.98,famous_male20.jpg
3,2,2,8,2,2,1,502,unknown_female06.jpg
3,2,2,9,2,2,1,431.32,unknown_female04.jpg
3,1,2,10,2,2,1,430,famous_female05.jpg
3,2,2,11,2,2,1,397.93,unknown_female16.jpg
3,1,2,12,2,2,1,381.95,famous_female14.jpg
3,2,2,13,1,1,1,407.16,unknown_male09.jpg
3,2,2,14,2,2,1,438.79,unknown_female13.jpg
3,2,2,15,1,1,1,493.88,unknown_male11.jpg
3,1,2,16,1,1,1,463.16,famous_male16.jpg
3,2,2,17,1,1,1,423.18,unknown_male03.jpg
3,2,2,18,2,2,1,541.86,unknown_female02.jpg
3,1,2,19,2,2,1,463.12,famous_female06.jpg
3,1,2,20,1,1,1,407.11,famous_male04.jpg
3,2,2,21,2,2,1,471.1,unknown_female17.jpg
3,1,2,22,1,1,1,735.08,famous_male01.jpg
3,1,2,23,2,2,1,519.07,famous_female18.jpg
3,1,2,24,1,1,1,551.04,famous_male09.jpg
3,2,2,25,1,1,1,487.04,unknown_male10.jpg
3,1,2,26,2,2,1,527.03,famous_female03.jpg
3,2,2,27,1,1,1,614.96,unknown_male20.jpg
3,1,2,28,1,1,1,463.03,famous_male12.jpg
3,2,2,29,1,1,1,510.97,unknown_male02.jpg
3,2,2,30,2,2,1,550.88,unknown_female08.jpg
3,1,2,31,2,2,1,901.66,famous_female16.jpg
3,1,2,32,2,2,1,390.95,famous_female09.jpg
3,2,2,33,2,2,1,478.94,unknown_female09.jpg
3,2,2,34,1,1,1,550.91,unknown_male01.jpg
3,1,2,35,1,1,1,694.91,famous_male15.jpg
3,1,2,36,1,1,1,534.87,famous_male07.jpg
3,2,2,37,1,1,1,518.87,unknown_male13.jpg
3,2,2,38,1,1,1,374.88,unknown_male07.jpg
3,1,2,39,2,2,1,742.84,famous_female20.jpg
3,2,2,40,2,2,1,750.84,unknown_female05.jpg
3,2,3,1,2,2,1,538.87,unknown_female17.jpg
3,2,3,2,1,2,0,546.89,unknown_male09.jpg
3,1,3,3,2,2,1,489.42,famous_female14.jpg
3,1,3,4,1,1,1,506.79,famous_male20.jpg
3,1,3,5,1,1,1,642.82,famous_male19.jpg
3,2,3,6,1,1,1,401.6,unknown_male07.jpg
3,1,3,7,2,2,1,466.79,famous_female06.jpg
3,2,3,8,2,2,1,482.77,unknown_female05.jpg
3,2,3,9,1,1,1,570.71,unknown_male01.jpg
3,2,3,10,2,2,1,514.73,unknown_female04.jpg
3,1,3,11,2,2,1,538.72,famous_female18.jpg
3,1,3,12,1,1,1,578.71,famous_male04.jpg
3,1,3,13,1,1,1,530.62,famous_male12.jpg
3,1,3,14,1,1,1,426.68,famous_male15.jpg
3,2,3,15,2,2,1,482.65,unknown_female16.jpg
3,2,3,16,1,1,1,778.64,unknown_male11.jpg
3,1,3,17,2,2,1,666.36,famous_female19.jpg
3,2,3,18,1,1,1,530.23,unknown_male02.jpg
3,2,3,19,1,1,1,554.22,unknown_male13.jpg
3,2,3,20,2,2,1,730.2,unknown_female13.jpg
3,1,3,21,2,2,1,610.19,famous_female07.jpg
3,1,3,22,1,1,1,482.17,famous_male09.jpg
3,1,3,23,1,1,1,482.16,famous_male16.jpg
3,1,3,24,2,2,1,514.16,famous_female20.jpg
3,1,3,25,1,1,1,474.13,famous_male10.jpg
3,1,3,26,1,1,1,402.12,famous_male07.jpg
3,1,3,27,1,1,1,538.1,famous_male01.jpg
3,2,3,28,1,1,1,520.84,unknown_male06.jpg
3,1,3,29,2,2,1,536.82,famous_female05.jpg
3,1,3,30,2,2,1,626.08,famous_female03.jpg
3,1,3,31,2,2,1,736.76,famous_female16.jpg
3,2,3,32,1,2,0,1360.75,unknown_male20.jpg
3,2,3,33,1,1,1,530.02,unknown_male03.jpg
3,1,3,34,2,2,1,474.02,famous_female09.jpg
3,2,3,35,2,2,1,801.98,unknown_female02.jpg
3,2,3,36,1,1,1,937.98,unknown_male10.jpg
3,2,3,37,2,2,1,449.98,unknown_female11.jpg
3,2,3,38,2,2,1,497.94,unknown_female06.jpg
3,2,3,39,2,2,1,521.94,unknown_female08.jpg
3,2,3,40,2,2,1,521.93,unknown_female09.jpg
3,2,4,1,1,2,0,957.94,unknown_male20.jpg
3,2,4,2,1,1,1,901.94,unknown_male06.jpg
3,1,4,3,2,2,1,469.9,famous_female20.jpg
3,1,4,4,1,1,1,693.9,famous_male04.jpg
3,2,4,5,1,1,1,533.87,unknown_male07.jpg
3,2,4,6,1,1,1,477.88,unknown_male11.jpg
3,2,4,7,1,1,1,357.86,unknown_male01.jpg
3,2,4,8,2,2,1,413.87,unknown_female13.jpg
3,1,4,9,1,1,1,461.83,famous_male15.jpg
3,1,4,10,2,2,1,549.77,famous_female07.jpg
3,1,4,11,1,1,1,381.82,famous_male01.jpg
3,1,4,12,2,2,1,453.78,famous_female16.jpg
3,2,4,13,1,1,1,381.78,unknown_male10.jpg
3,1,4,14,1,1,1,461.76,famous_male12.jpg
3,1,4,15,2,2,1,493.75,famous_female19.jpg
3,2,4,16,2,2,1,525.75,unknown_female16.jpg
3,1,4,17,1,1,1,556.41,famous_male19.jpg
3,1,4,18,1,1,1,485.71,famous_male20.jpg
3,2,4,19,2,2,1,492.36,unknown_female17.jpg
3,1,4,20,2,2,1,477.7,famous_female06.jpg
3,1,4,21,1,1,1,565.65,famous_male07.jpg
3,2,4,22,1,2,0,525.65,unknown_male13.jpg
3,1,4,23,2,2,1,396.36,famous_female03.jpg
3,1,4,24,2,2,1,508.29,famous_female05.jpg
3,1,4,25,1,1,1,461.62,famous_male10.jpg
3,1,4,26,1,1,1,413.51,famous_male09.jpg
3,1,4,27,1,1,1,372.29,famous_male16.jpg
3,2,4,28,2,2,1,461.56,unknown_female05.jpg
3,2,4,29,2,2,1,397.54,unknown_female02.jpg
3,1,4,30,2,2,1,436.22,famous_female09.jpg
3,2,4,31,1,1,1,445.61,unknown_male03.jpg
3,2,4,32,1,1,1,372.23,unknown_male02.jpg
3,2,4,33,2,2,1,453.51,unknown_female08.jpg
3,2,4,34,2,2,1,493.5,unknown_female11.jpg
3,1,4,35,2,2,1,428.14,famous_female18.jpg
3,1,4,36,2,2,1,493.47,famous_female14.jpg
3,2,4,37,2,2,1,453.51,unknown_female06.jpg
3,2,4,38,2,2,1,476.15,unknown_female09.jpg
3,2,4,39,1,2,0,356.07,unknown_male09.jpg
3,2,4,40,2,2,1,444.16,unknown_female04.jpg
3,2,5,1,1,1,1,467.9,unknown_male02.jpg
3,1,5,2,2,2,1,658.56,famous_female06.jpg
3,2,5,3,2,2,1,547.88,unknown_female11.jpg
3,1,5,4,1,1,1,563.88,famous_male07.jpg
3,2,5,5,1,1,1,379.86,unknown_male13.jpg
3,2,5,6,2,2,1,515.83,unknown_female02.jpg
3,1,5,7,2,2,1,515.76,famous_female16.jpg
3,2,5,8,1,1,1,411.8,unknown_male03.jpg
3,2,5,9,2,2,1,450.54,unknown_female08.jpg
3,1,5,10,1,1,1,482.55,famous_male04.jpg
3,1,5,11,1,1,1,467.76,famous_male15.jpg
3,1,5,12,2,2,1,419.75,famous_female07.jpg
3,1,5,13,1,1,1,491.72,famous_male20.jpg
3,2,5,14,2,2,1,499.72,unknown_female16.jpg
3,2,5,15,2,2,1,811.73,unknown_female09.jpg
3,1,5,16,1,1,1,475.57,famous_male16.jpg
3,2,5,17,1,1,1,451.69,unknown_male20.jpg
3,1,5,18,1,1,1,451.67,famous_male10.jpg
3,1,5,19,2,2,1,458.41,famous_female05.jpg
3,2,5,20,2,2,1,723.65,unknown_female13.jpg
3,2,5,21,1,1,1,667.57,unknown_male06.jpg
3,2,5,22,2,2,1,555.63,unknown_female05.jpg
3,1,5,23,2,2,1,851.51,famous_female14.jpg
3,2,5,24,1,1,1,651.61,unknown_male09.jpg
3,1,5,25,2,2,1,523.59,famous_female18.jpg
3,1,5,26,2,2,1,531.56,famous_female19.jpg
3,2,5,27,1,1,1,611.56,unknown_male10.jpg
3,1,5,28,1,1,1,827.54,famous_male09.jpg
3,1,5,29,1,1,1,490.12,famous_male19.jpg
3,1,5,30,2,2,1,507.5,famous_female20.jpg
3,2,5,31,1,1,1,499.49,unknown_male07.jpg
3,1,5,32,1,1,1,459.57,famous_male01.jpg
3,1,5,33,2,2,1,619.47,famous_female09.jpg
3,2,5,34,1,1,1,563.46,unknown_male11.jpg
3,2,5,35,2,2,1,987.43,unknown_female04.jpg
3,2,5,36,2,2,1,619.4,unknown_female17.jpg
3,2,5,37,2,1,0,570.17,unknown_female06.jpg
3,1,5,38,2,2,1,467.41,famous_female03.jpg
3,1,5,39,1,1,1,530.13,famous_male12.jpg
3,2,5,40,1,1,1,523.4,unknown_male01.jpg
3,1,6,1,1,1,1,423.1,famous_male12.jpg
3,2,6,2,1,1,1,525.79,unknown_male20.jpg
3,2,6,3,1,1,1,381.8,unknown_male13.jpg
3,1,6,4,1,1,1,455.05,famous_male16.jpg
3,1,6,5,2,2,1,517.68,famous_female05.jpg
3,1,6,6,1,1,1,455.02,famous_male07.jpg
3,1,6,7,2,2,1,494.98,famous_female03.jpg
3,2,6,8,1,1,1,439,unknown_male01.jpg
3,2,6,9,2,2,1,533.71,unknown_female09.jpg
3,2,6,10,1,2,0,566.96,unknown_male11.jpg
3,2,6,11,2,2,1,510.89,unknown_female13.jpg
3,1,6,12,2,2,1,422.93,famous_female20.jpg
3,1,6,13,1,2,0,470.92,famous_male20.jpg
3,2,6,14,2,2,1,445.66,unknown_female16.jpg
3,2,6,15,2,2,1,437.55,unknown_female08.jpg
3,1,6,16,1,1,1,446.91,famous_male04.jpg
3,2,6,17,1,1,1,390.86,unknown_male10.jpg
3,2,6,18,2,2,1,430.85,unknown_female11.jpg
3,2,6,19,2,2,1,477.54,unknown_female04.jpg
3,1,6,20,1,1,1,414.83,famous_male19.jpg
3,1,6,21,1,1,1,462.81,famous_male09.jpg
3,1,6,22,2,2,1,430.8,famous_female14.jpg
3,2,6,23,2,2,1,462.82,unknown_female17.jpg
3,2,6,24,1,1,1,422.77,unknown_male09.jpg
3,1,6,25,2,2,1,469.41,famous_female16.jpg
3,1,6,26,2,2,1,518.72,famous_female09.jpg
3,2,6,27,1,1,1,510.74,unknown_male03.jpg
3,1,6,28,2,2,1,669.42,famous_female07.jpg
3,2,6,29,1,1,1,542.7,unknown_male02.jpg
3,2,6,30,1,1,1,486.7,unknown_male07.jpg
3,2,6,31,2,2,1,574.69,unknown_female02.jpg
3,2,6,32,1,1,1,517.41,unknown_male06.jpg
3,2,6,33,2,2,1,542.58,unknown_female05.jpg
3,1,6,34,2,2,1,542.63,famous_female19.jpg
3,1,6,35,2,2,1,549.28,famous_female18.jpg
3,1,6,36,1,1,1,510.63,famous_male01.jpg
3,2,6,37,2,2,1,574.6,unknown_female06.jpg
3,1,6,38,1,1,1,478.58,famous_male15.jpg
3,1,6,39,1,1,1,485.33,famous_male10.jpg
3,1,6,40,2,2,1,510.56,famous_female06.jpg
3,1,7,1,1,1,1,510.06,famous_male16.jpg
3,1,7,2,1,1,1,462.06,famous_male20.jpg
3,2,7,3,1,1,1,358.04,unknown_male03.jpg
3,2,7,4,2,2,1,468.78,unknown_female11.jpg
3,2,7,5,2,2,1,414.03,unknown_female05.jpg
3,2,7,6,2,2,1,550.08,unknown_female06.jpg
3,1,7,7,1,1,1,493.97,famous_male10.jpg
3,1,7,8,2,2,1,461.96,famous_female18.jpg
3,2,7,9,2,2,1,678.18,unknown_female09.jpg
3,2,7,10,2,2,1,413.94,unknown_female04.jpg
3,2,7,11,1,1,1,605.93,unknown_male01.jpg
3,1,7,12,2,2,1,517.9,famous_female19.jpg
3,2,7,13,1,1,1,500.6,unknown_male02.jpg
3,1,7,14,1,1,1,413.88,famous_male01.jpg
3,2,7,15,1,1,1,485.92,unknown_male10.jpg
3,1,7,16,2,2,1,533.85,famous_female09.jpg
3,1,7,17,1,1,1,533.83,famous_male19.jpg
3,1,7,18,1,1,1,637.98,famous_male09.jpg
3,1,7,19,1,1,1,500.5,famous_male07.jpg
3,1,7,20,1,1,1,1149.8,famous_male15.jpg
3,2,7,21,2,2,1,484.51,unknown_female08.jpg
3,2,7,22,1,1,1,397.78,unknown_male20.jpg
3,2,7,23,2,2,1,525.77,unknown_female16.jpg
3,2,7,24,1,1,1,469.74,unknown_male13.jpg
3,1,7,25,2,2,1,573.75,famous_female14.jpg
3,1,7,26,2,2,1,533.71,famous_female16.jpg
3,2,7,27,1,1,1,493.72,unknown_male06.jpg
3,1,7,28,2,2,1,557.69,famous_female20.jpg
3,1,7,29,1,1,1,541.69,famous_male04.jpg
3,2,7,30,1,1,1,588.35,unknown_male11.jpg
3,1,7,31,2,2,1,485.66,famous_female05.jpg
3,1,7,32,2,2,1,565.78,famous_female07.jpg
3,2,7,33,1,1,1,597.62,unknown_male07.jpg
3,1,7,34,2,2,1,557.66,famous_female03.jpg
3,2,7,35,1,1,1,725.61,unknown_male09.jpg
3,2,7,36,2,2,1,461.64,unknown_female13.jpg
3,2,7,37,2,2,1,469.59,unknown_female02.jpg
3,2,7,38,2,2,1,565.55,unknown_female17.jpg
3,1,7,39,1,1,1,517.56,famous_male12.jpg
3,1,7,40,2,2,1,493.56,famous_female06.jpg
3,2,8,1,2,2,1,476.04,unknown_female08.jpg
3,2,8,2,1,1,1,467.98,unknown_male01.jpg
3,2,8,3,1,1,1,394.7,unknown_male13.jpg
3,2,8,4,2,2,1,355.99,unknown_female09.jpg
3,1,8,5,2,2,1,420.01,famous_female05.jpg
3,1,8,6,1,1,1,379.96,famous_male04.jpg
3,1,8,7,1,1,1,514.65,famous_male01.jpg
3,1,8,8,1,1,1,419.94,famous_male10.jpg
3,2,8,9,1,1,1,411.93,unknown_male10.jpg
3,1,8,10,2,2,1,427.9,famous_female06.jpg
3,2,8,11,1,1,1,658.63,unknown_male20.jpg
3,1,8,12,1,1,1,378.59,famous_male20.jpg
3,2,8,13,2,2,1,395.88,unknown_female04.jpg
3,1,8,14,2,2,1,419.86,famous_female14.jpg
3,1,8,15,1,1,1,475.84,famous_male19.jpg
3,2,8,16,1,1,1,475.81,unknown_male09.jpg
3,1,8,17,1,1,1,459.11,famous_male16.jpg
3,2,8,18,2,2,1,491,unknown_female05.jpg
3,1,8,19,1,1,1,491,famous_male07.jpg
3,2,8,20,1,1,1,465.79,unknown_male07.jpg
3,1,8,21,2,2,1,515.07,famous_female07.jpg
3,1,8,22,2,2,1,521.78,famous_female19.jpg
3,1,8,23,1,1,1,505.71,famous_male12.jpg
3,2,8,24,1,1,1,385.79,unknown_male02.jpg
3,1,8,25,2,2,1,811.02,famous_female20.jpg
3,2,8,26,2,2,1,546.98,unknown_female16.jpg
3,2,8,27,2,2,1,651,unknown_female11.jpg
3,1,8,28,2,2,1,691.04,famous_female03.jpg
3,1,8,29,1,1,1,506.96,famous_male09.jpg
3,2,8,30,2,2,1,539,unknown_female06.jpg
3,2,8,31,1,1,1,498.93,unknown_male06.jpg
3,1,8,32,2,2,1,506.91,famous_female16.jpg
3,1,8,33,2,2,1,553.59,famous_female18.jpg
3,2,8,34,2,2,1,602.88,unknown_female02.jpg
3,1,8,35,2,2,1,490.79,famous_female09.jpg
3,2,8,36,2,2,1,674.85,unknown_female17.jpg
3,2,8,37,1,1,1,642.84,unknown_male11.jpg
3,2,8,38,2,2,1,586.83,unknown_female13.jpg
3,1,8,39,1,1,1,899.05,famous_male15.jpg
3,2,8,40,1,1,1,721.47,unknown_male03.jpg
4,1,1,1,2,2,1,625.5,famous_female14.jpg
4,2,1,2,2,2,1,480.72,unknown_female01.jpg
4,1,1,3,1,1,1,392.81,famous_male02.jpg
4,2,1,4,1,1,1,344.9,unknown_male10.jpg
4,1,1,5,2,2,1,352.77,famous_female12.jpg
4,1,1,6,2,2,1,344.76,famous_female20.jpg
4,2,1,7,2,2,1,375.46,unknown_female05.jpg
4,2,1,8,1,1,1,496.67,unknown_male13.jpg
4,1,1,9,2,1,0,344.71,famous_female01.jpg
4,1,1,10,1,1,1,520.69,famous_male03.jpg
4,2,1,11,2,2,1,375.41,unknown_female07.jpg
4,1,1,12,1,1,1,384.66,famous_male09.jpg
4,1,1,13,1,1,1,568.63,famous_male08.jpg
4,1,1,14,1,1,1,392.63,famous_male17.jpg
4,1,1,15,2,2,1,344.63,famous_female17.jpg
4,2,1,16,2,2,1,368.61,unknown_female11.jpg
4,2,1,17,2,2,1,344.58,unknown_female03.jpg
4,1,1,18,1,1,1,343.28,famous_male13.jpg
4,1,1,19,2,2,1,431.91,famous_female03.jpg
4,2,1,20,1,1,1,376.59,unknown_male06.jpg
4,2,1,21,1,1,1,344.55,unknown_male08.jpg
4,2,1,22,1,1,1,319.24,unknown_male07.jpg
4,2,1,23,1,1,1,304.53,unknown_male12.jpg
4,2,1,24,2,2,1,352.49,unknown_female15.jpg
4,1,1,25,2,2,1,368.52,famous_female18.jpg
4,1,1,26,1,1,1,320.44,famous_male12.jpg
4,2,1,27,2,2,1,335.18,unknown_female13.jpg
4,2,1,28,1,1,1,312.47,unknown_male04.jpg
4,2,1,29,2,2,1,368.44,unknown_female18.jpg
4,2,1,30,2,2,1,399.19,unknown_female06.jpg
4,2,1,31,1,2,0,351.14,unknown_male05.jpg
4,2,1,32,1,1,1,471.11,unknown_male19.jpg
4,1,1,33,2,2,1,448.39,famous_female19.jpg
4,1,1,34,2,2,1,407.07,famous_female05.jpg
4,1,1,35,2,2,1,311.09,famous_female10.jpg
4,1,1,36,1,1,1,336.34,famous_male14.jpg
4,2,1,37,1,1,1,480.33,unknown_male17.jpg
4,2,1,38,2,2,1,400.31,unknown_female19.jpg
4,1,1,39,1,1,1,328.37,famous_male10.jpg
4,1,1,40,1,1,1,463,famous_male07.jpg
4,2,2,1,1,0,0,0,unknown_male12.jpg
4,2,2,2,2,2,1,1114.44,unknown_female13.jpg
4,2,2,3,2,2,1,690.52,unknown_female03.jpg
4,2,2,4,2,2,1,401.22,unknown_female18.jpg
4,2,2,5,2,2,1,442.48,unknown_female06.jpg
4,1,2,6,2,2,1,409.18,famous_female10.jpg
4,2,2,7,1,1,1,473.24,unknown_male17.jpg
4,1,2,8,2,2,1,481.2,famous_female19.jpg
4,1,2,9,1,1,1,489.07,famous_male12.jpg
4,1,2,10,2,2,1,482.41,famous_female12.jpg
4,1,2,11,1,1,1,370.41,famous_male03.jpg
4,1,2,12,2,2,1,466.43,famous_female18.jpg
4,2,2,13,1,1,1,385.07,unknown_male13.jpg
4,2,2,14,2,2,1,370.37,unknown_female01.jpg
4,1,2,15,1,1,1,626.34,famous_male02.jpg
4,1,2,16,2,2,1,450.3,famous_female20.jpg
4,1,2,17,1,1,1,410.34,famous_male13.jpg
4,2,2,18,1,1,1,810.32,unknown_male04.jpg
4,1,2,19,2,2,1,386.3,famous_female03.jpg
4,2,2,20,1,1,1,352.98,unknown_male05.jpg
4,2,2,21,1,1,1,442.31,unknown_male08.jpg
4,1,2,22,1,1,1,354.27,famous_male10.jpg
4,1,2,23,1,1,1,400.97,famous_male07.jpg
4,1,2,24,2,2,1,418.25,famous_female01.jpg
4,2,2,25,2,2,1,376.96,unknown_female11.jpg
4,1,2,26,1,1,1,378.2,famous_male09.jpg
4,1,2,27,2,2,1,338.24,famous_female05.jpg
4,1,2,28,2,1,0,306.19,famous_female17.jpg
4,2,2,29,2,2,1,418.2,unknown_female07.jpg
4,1,2,30,2,2,1,514.14,famous_female14.jpg
4,2,2,31,2,2,1,362.15,unknown_female05.jpg
4,2,2,32,1,1,1,424.85,unknown_male10.jpg
4,1,2,33,1,1,1,530.14,famous_male17.jpg
4,2,2,34,1,1,1,362.11,unknown_male19.jpg
4,2,2,35,2,2,1,418.09,unknown_female15.jpg
4,1,2,36,1,1,1,408.79,famous_male08.jpg
4,2,2,37,2,2,1,394.06,unknown_female19.jpg
4,1,2,38,1,1,1,458.05,famous_male14.jpg
4,2,2,39,1,1,1,376.75,unknown_male06.jpg
4,2,2,40,1,1,1,362.02,unknown_male07.jpg
4,2,3,1,2,2,1,620.16,unknown_female01.jpg
4,2,3,2,2,2,1,396.15,unknown_female19.jpg
4,1,3,3,2,2,1,428.15,famous_female18.jpg
4,1,3,4,1,1,1,354.84,famous_male12.jpg
4,2,3,5,1,1,1,340.12,unknown_male12.jpg
4,1,3,6,2,2,1,436.1,famous_female01.jpg
4,1,3,7,2,2,1,354.8,famous_female17.jpg
4,2,3,8,2,2,1,428.07,unknown_female07.jpg
4,2,3,9,2,2,1,356.06,unknown_female18.jpg
4,1,3,10,1,1,1,436.03,famous_male10.jpg
4,1,3,11,2,2,1,372.03,famous_female05.jpg
4,1,3,12,2,2,1,450.69,famous_female19.jpg
4,2,3,13,1,1,1,468,unknown_male07.jpg
4,2,3,14,1,1,1,395.99,unknown_male05.jpg
4,1,3,15,2,2,1,387.97,famous_female12.jpg
4,1,3,16,1,1,1,316.01,famous_male13.jpg
4,1,3,17,2,2,1,475.96,famous_female14.jpg
4,1,3,18,1,1,1,347.94,famous_male17.jpg
4,2,3,19,2,2,1,403.93,unknown_female05.jpg
4,1,3,20,2,2,1,531.92,famous_female20.jpg
4,2,3,21,2,2,1,322.61,unknown_female13.jpg
4,1,3,22,1,1,1,275.91,famous_male02.jpg
4,2,3,23,2,2,1,371.92,unknown_female06.jpg
4,1,3,24,1,1,1,394.62,famous_male14.jpg
4,1,3,25,1,1,1,387.9,famous_male07.jpg
4,1,3,26,2,2,1,307.83,famous_female10.jpg
4,2,3,27,1,2,0,394.56,unknown_male06.jpg
4,1,3,28,1,1,1,514.52,famous_male08.jpg
4,2,3,29,1,1,1,467.78,unknown_male10.jpg
4,1,3,30,1,1,1,339.81,famous_male09.jpg
4,2,3,31,1,1,1,315.76,unknown_male08.jpg
4,2,3,32,1,1,1,395.74,unknown_male17.jpg
4,1,3,33,2,2,1,467.73,famous_female03.jpg
4,2,3,34,1,1,1,379.7,unknown_male13.jpg
4,1,3,35,1,1,1,451.7,famous_male03.jpg
4,2,3,36,1,1,1,354.39,unknown_male04.jpg
4,2,3,37,2,2,1,411.57,unknown_female03.jpg
4,2,3,38,1,1,1,491.55,unknown_male19.jpg
4,2,3,39,2,2,1,411.66,unknown_female15.jpg
4,2,3,40,2,2,1,634.39,unknown_female11.jpg
4,2,4,1,1,1,1,735.83,unknown_male17.jpg
4,2,4,2,1,1,1,455.93,unknown_male12.jpg
4,2,4,3,2,2,1,455.86,unknown_female19.jpg
4,2,4,4,1,1,1,406.6,unknown_male19.jpg
4,2,4,5,2,2,1,439.82,unknown_female01.jpg
4,1,4,6,2,2,1,375.83,famous_female14.jpg
4,2,4,7,2,2,1,463.81,unknown_female15.jpg
4,1,4,8,2,2,1,439.83,famous_female05.jpg
4,2,4,9,2,2,1,455.79,unknown_female05.jpg
4,1,4,10,2,2,1,390.55,famous_female12.jpg
4,1,4,11,1,1,1,326.41,famous_male14.jpg
4,2,4,12,2,2,1,383.8,unknown_female03.jpg
4,2,4,13,2,2,1,414.38,unknown_female13.jpg
4,1,4,14,2,2,1,479.72,famous_female10.jpg
4,2,4,15,1,1,1,374.41,unknown_male05.jpg
4,1,4,16,1,1,1,326.43,famous_male03.jpg
4,1,4,17,1,1,1,319.67,famous_male10.jpg
4,2,4,18,2,2,1,407.66,unknown_female06.jpg
4,2,4,19,2,2,1,398.33,unknown_female07.jpg
4,1,4,20,1,1,1,447.64,famous_male09.jpg
4,1,4,21,2,2,1,359.62,famous_female01.jpg
4,2,4,22,1,1,1,375.6,unknown_male08.jpg
4,2,4,23,1,1,1,431.58,unknown_male10.jpg
4,2,4,24,2,2,1,415.58,unknown_female18.jpg
4,2,4,25,1,1,1,399.58,unknown_male04.jpg
4,1,4,26,2,2,1,382.3,famous_female17.jpg
4,1,4,27,1,1,1,303.53,famous_male13.jpg
4,2,4,28,1,1,1,447.52,unknown_male13.jpg
4,1,4,29,2,2,1,406.24,famous_female20.jpg
4,1,4,30,2,1,0,383.5,famous_female03.jpg
4,2,4,31,2,2,1,447.48,unknown_female11.jpg
4,1,4,32,1,1,1,446.16,famous_male07.jpg
4,2,4,33,1,1,1,559.45,unknown_male06.jpg
4,1,4,34,1,1,1,462.1,famous_male12.jpg
4,1,4,35,1,1,1,415.45,famous_male17.jpg
4,1,4,36,1,1,1,375.45,famous_male08.jpg
4,1,4,37,2,2,1,623.4,famous_female19.jpg
4,1,4,38,1,1,1,495.38,famous_male02.jpg
4,1,4,39,2,2,1,463.36,famous_female18.jpg
4,2,4,40,1,1,1,431.36,unknown_male07.jpg
4,1,5,1,2,2,1,661.15,famous_female03.jpg
4,1,5,2,1,1,1,661.08,famous_male08.jpg
4,2,5,3,2,2,1,493.07,unknown_female11.jpg
4,1,5,4,2,2,1,565.08,famous_female17.jpg
4,1,5,5,1,1,1,379.8,famous_male13.jpg
4,2,5,6,2,2,1,405.04,unknown_female18.jpg
4,2,5,7,2,2,1,507.76,unknown_female15.jpg
4,2,5,8,2,2,1,437.01,unknown_female01.jpg
4,1,5,9,1,1,1,445.01,famous_male09.jpg
4,1,5,10,1,1,1,380.99,famous_male17.jpg
4,2,5,11,1,1,1,276.98,unknown_male13.jpg
4,2,5,12,2,2,1,396.95,unknown_female03.jpg
4,1,5,13,2,2,1,412.93,famous_female12.jpg
4,2,5,14,2,2,1,420.94,unknown_female13.jpg
4,2,5,15,1,1,1,443.67,unknown_male10.jpg
4,1,5,16,1,1,1,580.9,famous_male03.jpg
4,1,5,17,1,1,1,404.88,famous_male10.jpg
4,2,5,18,1,1,1,388.89,unknown_male19.jpg
4,2,5,19,1,1,1,292.86,unknown_male12.jpg
4,2,5,20,1,1,1,300.89,unknown_male06.jpg
4,2,5,21,1,1,1,276.84,unknown_male05.jpg
4,1,5,22,2,2,1,476.82,famous_female05.jpg
4,2,5,23,2,2,1,332.88,unknown_female07.jpg
4,2,5,24,2,2,1,372.81,unknown_female05.jpg
4,2,5,25,2,2,1,252.78,unknown_female06.jpg
4,2,5,26,1,2,0,259.6,unknown_male07.jpg
4,1,5,27,1,1,1,460.64,famous_male02.jpg
4,2,5,28,1,1,1,524.74,unknown_male04.jpg
4,2,5,29,1,1,1,419.47,unknown_male08.jpg
4,1,5,30,2,2,1,412.7,famous_female20.jpg
4,1,5,31,2,2,1,444.68,famous_female18.jpg
4,1,5,32,1,1,1,404.68,famous_male07.jpg
4,2,5,33,2,2,1,428.68,unknown_female19.jpg
4,1,5,34,2,2,1,452.67,famous_female10.jpg
4,1,5,35,1,1,1,468.64,famous_male12.jpg
4,1,5,36,2,2,1,411.47,famous_female01.jpg
4,2,5,37,1,1,1,340.61,unknown_male17.jpg
4,1,5,38,2,2,1,444.61,famous_female14.jpg
4,1,5,39,1,1,1,348.59,famous_male14.jpg
4,1,5,40,2,2,1,428.58,famous_female19.jpg
4,2,6,1,2,2,1,547.81,unknown_female19.jpg
4,1,6,2,2,2,1,427.83,famous_female17.jpg
4,1,6,3,2,2,1,386.5,famous_female18.jpg
4,1,6,4,2,2,1,386.48,famous_female10.jpg
4,1,6,5,1,1,1,395.78,famous_male03.jpg
4,2,6,6,2,2,1,466.47,unknown_female07.jpg
4,1,6,7,2,2,1,411.75,famous_female12.jpg
4,1,6,8,1,1,1,355.72,famous_male14.jpg
4,1,6,9,1,1,1,378.38,famous_male13.jpg
4,2,6,10,1,1,1,378.43,unknown_male19.jpg
4,2,6,11,1,1,1,283.61,unknown_male13.jpg
4,2,6,12,2,2,1,306.38,unknown_female11.jpg
4,1,6,13,1,1,1,467.65,famous_male08.jpg
4,1,6,14,1,1,1,395.67,famous_male09.jpg
4,2,6,15,1,1,1,395.63,unknown_male04.jpg
4,1,6,16,2,2,1,434.32,famous_female03.jpg
4,1,6,17,1,1,1,299.52,famous_male07.jpg
4,2,6,18,2,2,1,418.33,unknown_female01.jpg
4,1,6,19,1,1,1,419.59,famous_male02.jpg
4,2,6,20,2,2,1,427.58,unknown_female05.jpg
4,1,6,21,2,2,1,419.56,famous_female20.jpg
4,2,6,22,1,1,1,315.55,unknown_male08.jpg
4,2,6,23,2,2,1,346.24,unknown_female13.jpg
4,1,6,24,2,1,0,482.2,famous_female19.jpg
4,2,6,25,2,2,1,419.53,unknown_female15.jpg
4,1,6,26,1,1,1,307.45,famous_male12.jpg
4,1,6,27,1,1,1,322.19,famous_male10.jpg
4,2,6,28,1,1,1,330.14,unknown_male10.jpg
4,1,6,29,1,1,1,331.48,famous_male17.jpg
4,2,6,30,1,1,1,331.43,unknown_male05.jpg
4,2,6,31,1,1,1,267.43,unknown_male17.jpg
4,2,6,32,2,2,1,443.42,unknown_female06.jpg
4,1,6,33,2,2,1,403.4,famous_female05.jpg
4,2,6,34,2,2,1,363.38,unknown_female18.jpg
4,2,6,35,1,1,1,411.37,unknown_male06.jpg
4,1,6,36,2,2,1,379.35,famous_female01.jpg
4,2,6,37,1,1,1,378.1,unknown_male07.jpg
4,2,6,38,1,1,1,363.34,unknown_male12.jpg
4,2,6,39,2,2,1,402.01,unknown_female03.jpg
4,1,6,40,2,2,1,403.31,famous_female14.jpg
4,2,7,1,1,1,1,649.82,unknown_male13.jpg
4,1,7,2,1,1,1,384.55,famous_male13.jpg
4,1,7,3,1,1,1,329.8,famous_male07.jpg
4,2,7,4,1,1,1,217.78,unknown_male10.jpg
4,1,7,5,2,1,0,233.71,famous_female18.jpg
4,1,7,6,1,1,1,569.75,famous_male03.jpg
4,1,7,7,2,2,1,865.74,famous_female20.jpg
4,1,7,8,1,1,1,456.44,famous_male12.jpg
4,2,7,9,2,2,1,401.63,unknown_female06.jpg
4,1,7,10,1,1,1,353.72,famous_male17.jpg
4,2,7,11,2,2,1,417.69,unknown_female01.jpg
4,2,7,12,1,1,1,481.69,unknown_male08.jpg
4,2,7,13,1,1,1,393.66,unknown_male17.jpg
4,2,7,14,1,1,1,289.65,unknown_male05.jpg
4,2,7,15,2,2,1,409.63,unknown_female03.jpg
4,2,7,16,1,1,1,336.36,unknown_male04.jpg
4,2,7,17,1,2,0,289.59,unknown_male19.jpg
4,1,7,18,2,2,1,481.59,famous_female19.jpg
4,2,7,19,2,2,1,401.57,unknown_female19.jpg
4,1,7,20,1,1,1,392.28,famous_male08.jpg
4,2,7,21,2,2,1,481.56,unknown_female13.jpg
4,1,7,22,1,1,1,449.54,famous_male09.jpg
4,1,7,23,2,2,1,441.53,famous_female10.jpg
4,2,7,24,2,2,1,497.5,unknown_female07.jpg
4,2,7,25,1,1,1,409.5,unknown_male06.jpg
4,2,7,26,1,1,1,304.22,unknown_male12.jpg
4,1,7,27,2,2,1,425.48,famous_female17.jpg
4,1,7,28,1,1,1,361.46,famous_male10.jpg
4,2,7,29,2,2,1,297.44,unknown_female18.jpg
4,2,7,30,2,2,1,481.43,unknown_female15.jpg
4,2,7,31,2,2,1,409.42,unknown_female11.jpg
4,1,7,32,2,2,1,465.41,famous_female14.jpg
4,1,7,33,2,2,1,440.06,famous_female05.jpg
4,1,7,34,2,2,1,385.38,famous_female12.jpg
4,1,7,35,1,1,1,345.32,famous_male14.jpg
4,1,7,36,2,2,1,489.36,famous_female03.jpg
4,2,7,37,2,2,1,913.31,unknown_female05.jpg
4,2,7,38,1,1,1,480.14,unknown_male07.jpg
4,1,7,39,1,1,1,417.33,famous_male02.jpg
4,1,7,40,2,2,1,393.32,famous_female01.jpg
4,2,8,1,1,1,1,470.01,unknown_male04.jpg
4,2,8,2,2,2,1,325.99,unknown_female19.jpg
4,2,8,3,2,2,1,390,unknown_female05.jpg
4,1,8,4,2,2,1,317.95,famous_female18.jpg
4,1,8,5,1,1,1,421.95,famous_male09.jpg
4,2,8,6,1,1,1,364.65,unknown_male10.jpg
4,1,8,7,2,2,1,493.95,famous_female03.jpg
4,2,8,8,1,2,0,365.89,unknown_male13.jpg
4,2,8,9,1,1,1,469.9,unknown_male17.jpg
4,2,8,10,1,1,1,453.88,unknown_male05.jpg
4,2,8,11,2,1,0,396.59,unknown_female15.jpg
4,2,8,12,1,1,1,477.86,unknown_male08.jpg
4,2,8,13,2,2,1,420.58,unknown_female07.jpg
4,1,8,14,1,1,1,397.82,famous_male03.jpg
4,2,8,15,2,2,1,413.81,unknown_female01.jpg
4,1,8,16,2,2,1,469.81,famous_female17.jpg
4,2,8,17,1,1,1,396.47,unknown_male12.jpg
4,2,8,18,2,2,1,396.49,unknown_female06.jpg
4,1,8,19,2,2,1,493.84,famous_female20.jpg
4,2,8,20,2,2,1,541.76,unknown_female03.jpg
4,1,8,21,2,2,1,500.46,famous_female14.jpg
4,1,8,22,1,1,1,381.74,famous_male17.jpg
4,1,8,23,2,2,1,468.42,famous_female01.jpg
4,1,8,24,1,1,1,573.69,famous_male13.jpg
4,2,8,25,2,2,1,381.67,unknown_female18.jpg
4,2,8,26,1,1,1,436.39,unknown_male19.jpg
4,1,8,27,2,2,1,317.66,famous_female05.jpg
4,1,8,28,1,1,1,405.68,famous_male12.jpg
4,2,8,29,2,2,1,324.36,unknown_female13.jpg
4,2,8,30,1,1,1,309.62,unknown_male06.jpg
4,1,8,31,1,1,1,477.6,famous_male14.jpg
4,1,8,32,1,1,1,453.59,famous_male02.jpg
4,1,8,33,1,1,1,341.57,famous_male07.jpg
4,2,8,34,1,1,1,301.55,unknown_male07.jpg
4,1,8,35,2,2,1,397.55,famous_female12.jpg
4,1,8,36,2,2,1,437.52,famous_female10.jpg
4,1,8,37,1,1,1,373.52,famous_male10.jpg
4,1,8,38,2,2,1,469.51,famous_female19.jpg
4,1,8,39,1,1,1,269.49,famous_male08.jpg
4,2,8,40,2,2,1,348.18,unknown_female11.jpg
5,2,1,1,2,2,1,756.13,unknown_female13.jpg
5,2,1,2,2,2,1,548.38,unknown_female18.jpg
5,1,1,3,1,2,0,332.13,famous_male17.jpg
5,1,1,4,2,2,1,524.08,famous_female04.jpg
5,1,1,5,1,1,1,540.08,famous_male02.jpg
5,1,1,6,2,2,1,444.14,famous_female06.jpg
5,1,1,7,2,2,1,572.04,famous_female05.jpg
5,2,1,8,2,2,1,652.06,unknown_female12.jpg
5,2,1,9,1,1,1,476.01,unknown_male07.jpg
5,1,1,10,1,2,0,507.97,famous_male08.jpg
5,2,1,11,2,2,1,948.03,unknown_female02.jpg
5,2,1,12,1,1,1,619.98,unknown_male02.jpg
5,2,1,13,1,1,1,507.96,unknown_male04.jpg
5,1,1,14,2,2,1,596.06,famous_female07.jpg
5,1,1,15,1,1,1,515.27,famous_male04.jpg
5,2,1,16,1,1,1,571.93,unknown_male11.jpg
5,2,1,17,1,1,1,459.91,unknown_male18.jpg
5,1,1,18,1,1,1,458.83,famous_male16.jpg
5,1,1,19,2,2,1,731.87,famous_female14.jpg
5,2,1,20,1,1,1,731.93,unknown_male01.jpg
5,2,1,21,2,2,1,451.86,unknown_female05.jpg
5,1,1,22,1,1,1,419.84,famous_male12.jpg
5,1,1,23,2,2,1,483.83,famous_female16.jpg
5,2,1,24,2,2,1,515.82,unknown_female07.jpg
5,1,1,25,2,1,0,443.81,famous_female19.jpg
5,2,1,26,2,2,1,683.8,unknown_female10.jpg
5,2,1,27,2,2,1,666.53,unknown_female15.jpg
5,1,1,28,1,1,1,602.51,famous_male09.jpg
5,1,1,29,1,1,1,531.69,famous_male05.jpg
5,1,1,30,2,2,1,482.47,famous_female09.jpg
5,1,1,31,2,2,1,459.73,famous_female10.jpg
5,1,1,32,2,2,1,466.36,famous_female15.jpg
5,2,1,33,1,1,1,466.42,unknown_male13.jpg
5,1,1,34,1,1,1,411.69,famous_male01.jpg
5,2,1,35,1,1,1,523.67,unknown_male03.jpg
5,1,1,36,1,1,1,467.65,famous_male13.jpg
5,2,1,37,1,1,1,578.38,unknown_male19.jpg
5,2,1,38,2,2,1,523.63,unknown_female19.jpg
5,2,1,39,1,1,1,763.66,unknown_male05.jpg
5,2,1,40,2,2,1,450.28,unknown_female20.jpg
5,2,2,1,2,0,0,0,unknown_female13.jpg
5,2,2,2,1,0,0,0,unknown_male02.jpg
5,2,2,3,2,0,0,0,unknown_female12.jpg
5,2,2,4,1,1,1,436.79,unknown_male13.jpg
5,1,2,5,1,0,0,0,famous_male17.jpg
5,1,2,6,2,2,1,508.81,famous_female14.jpg
5,2,2,7,2,2,1,534.05,unknown_female20.jpg
5,1,2,8,1,2,0,814.03,famous_male02.jpg
5,2,2,9,2,2,1,918.01,unknown_female05.jpg
5,1,2,10,1,1,1,534.01,famous_male08.jpg
5,2,2,11,1,1,1,445.98,unknown_male18.jpg
5,1,2,12,2,2,1,486,famous_female06.jpg
5,1,2,13,2,2,1,549.99,famous_female10.jpg
5,2,2,14,2,2,1,477.94,unknown_female07.jpg
5,1,2,15,2,2,1,733.9,famous_female07.jpg
5,2,2,16,1,1,1,405.93,unknown_male07.jpg
5,2,2,17,1,1,1,493.83,unknown_male11.jpg
5,1,2,18,1,1,1,556.11,famous_male05.jpg
5,2,2,19,1,1,1,492.11,unknown_male19.jpg
5,1,2,20,2,2,1,564.08,famous_female16.jpg
5,2,2,21,2,2,1,612.07,unknown_female19.jpg
5,1,2,22,2,2,1,588.06,famous_female15.jpg
5,2,2,23,2,2,1,524.05,unknown_female18.jpg
5,1,2,24,1,1,1,506.73,famous_male13.jpg
5,1,2,25,2,2,1,508.02,famous_female09.jpg
5,1,2,26,1,1,1,716.02,famous_male09.jpg
5,1,2,27,2,2,1,436.02,famous_female05.jpg
5,1,2,28,1,1,1,484.01,famous_male04.jpg
5,2,2,29,2,2,1,586.62,unknown_female15.jpg
5,2,2,30,1,1,1,778.66,unknown_male03.jpg
5,1,2,31,1,1,1,475.94,famous_male01.jpg
5,1,2,32,1,1,1,539.94,famous_male16.jpg
5,2,2,33,1,1,1,747.91,unknown_male05.jpg
5,2,2,34,2,2,1,859.88,unknown_female10.jpg
5,1,2,35,2,2,1,554.61,famous_female04.jpg
5,2,2,36,1,1,1,539.89,unknown_male01.jpg
5,1,2,37,2,2,1,827.86,famous_female19.jpg
5,2,2,38,2,2,1,603.85,unknown_female02.jpg
5,1,2,39,1,1,1,523.82,famous_male12.jpg
5,2,2,40,1,1,1,595.82,unknown_male04.jpg
5,2,3,1,2,2,1,1001.89,unknown_female20.jpg
5,2,3,2,1,1,1,569.9,unknown_male11.jpg
5,2,3,3,2,1,0,361.88,unknown_female18.jpg
5,1,3,4,2,2,1,536.61,famous_female09.jpg
5,1,3,5,2,2,1,385.83,famous_female10.jpg
5,1,3,6,2,2,1,601.82,famous_female19.jpg
5,2,3,7,2,2,1,353.84,unknown_female12.jpg
5,1,3,8,2,2,1,329.81,famous_female14.jpg
5,1,3,9,1,1,1,457.82,famous_male08.jpg
5,1,3,10,1,1,1,457.8,famous_male05.jpg
5,1,3,11,1,1,1,441.78,famous_male09.jpg
5,2,3,12,2,2,1,472.46,unknown_female05.jpg
5,2,3,13,1,1,1,553.74,unknown_male03.jpg
5,2,3,14,1,1,1,417.74,unknown_male01.jpg
5,1,3,15,2,2,1,785.72,famous_female04.jpg
5,2,3,16,2,2,1,737.7,unknown_female02.jpg
5,2,3,17,2,2,1,425.73,unknown_female10.jpg
5,2,3,18,1,1,1,481.75,unknown_male04.jpg
5,2,3,19,1,1,1,617.75,unknown_male13.jpg
5,1,3,20,1,1,1,465.65,famous_male12.jpg
5,1,3,21,1,1,1,377.65,famous_male13.jpg
5,1,3,22,2,1,0,377.62,famous_female16.jpg
5,2,3,23,2,2,1,425.55,unknown_female15.jpg
5,1,3,24,1,1,1,441.58,famous_male02.jpg
5,2,3,25,1,1,1,377.58,unknown_male07.jpg
5,2,3,26,1,1,1,569.56,unknown_male19.jpg
5,1,3,27,1,1,1,457.54,famous_male01.jpg
5,1,3,28,2,2,1,561.55,famous_female07.jpg
5,1,3,29,2,2,1,513.53,famous_female15.jpg
5,2,3,30,1,1,1,617.52,unknown_male18.jpg
5,1,3,31,2,2,1,385.5,famous_female05.jpg
5,2,3,32,2,2,1,465.49,unknown_female07.jpg
5,1,3,33,2,2,1,561.47,famous_female06.jpg
5,2,3,34,1,1,1,441.47,unknown_male02.jpg
5,2,3,35,1,1,1,673.43,unknown_male05.jpg
5,2,3,36,2,2,1,513.44,unknown_female19.jpg
5,1,3,37,1,1,1,473.42,famous_male17.jpg
5,2,3,38,2,2,1,441.42,unknown_female13.jpg
5,1,3,39,1,1,1,465.4,famous_male16.jpg
5,1,3,40,1,1,1,561.38,famous_male04.jpg
5,1,4,1,2,2,1,531.36,famous_female09.jpg
5,2,4,2,2,2,1,379.34,unknown_female13.jpg
5,2,4,3,2,2,1,323.33,unknown_female07.jpg
5,2,4,4,2,2,1,395.35,unknown_female19.jpg
5,1,4,5,1,1,1,505.96,famous_male16.jpg
5,1,4,6,1,1,1,537.96,famous_male05.jpg
5,2,4,7,2,2,1,443.26,unknown_female02.jpg
5,1,4,8,1,1,1,675.26,famous_male01.jpg
5,1,4,9,2,2,1,459.25,famous_female06.jpg
5,2,4,10,1,1,1,451.21,unknown_male13.jpg
5,2,4,11,1,1,1,427.23,unknown_male07.jpg
5,1,4,12,2,2,1,419.23,famous_female14.jpg
5,2,4,13,1,1,1,443.18,unknown_male19.jpg
5,1,4,14,2,2,1,411.18,famous_female05.jpg
5,2,4,15,1,1,1,395.18,unknown_male05.jpg
5,1,4,16,2,1,0,459.16,famous_female19.jpg
5,1,4,17,2,2,1,627.14,famous_female15.jpg
5,1,4,18,1,1,1,539.12,famous_male08.jpg
5,1,4,19,2,2,1,539.12,famous_female04.jpg
5,1,4,20,1,1,1,595.1,famous_male13.jpg
5,2,4,21,1,1,1,595.08,unknown_male03.jpg
5,1,4,22,2,2,1,571.07,famous_female16.jpg
5,2,4,23,1,1,1,747.06,unknown_male02.jpg
5,2,4,24,1,1,1,443.09,unknown_male04.jpg
5,2,4,25,2,2,1,403.04,unknown_female15.jpg
5,1,4,26,1,1,1,411,famous_male04.jpg
5,2,4,27,2,2,1,419.01,unknown_female20.jpg
5,2,4,28,2,2,1,634.99,unknown_female10.jpg
5,2,4,29,1,1,1,482.98,unknown_male11.jpg
5,2,4,30,1,1,1,562.96,unknown_male18.jpg
5,1,4,31,1,1,1,490.96,famous_male02.jpg
5,1,4,32,2,2,1,426.95,famous_female07.jpg
5,1,4,33,1,2,0,425.65,famous_male17.jpg
5,2,4,34,2,2,1,450.81,unknown_female12.jpg
5,1,4,35,2,2,1,498.91,famous_female10.jpg
5,2,4,36,2,2,1,378.88,unknown_female05.jpg
5,1,4,37,1,1,1,530.87,famous_male12.jpg
5,1,4,38,1,1,1,457.56,famous_male09.jpg
5,2,4,39,2,2,1,434.86,unknown_female18.jpg
5,2,4,40,1,1,1,634.81,unknown_male01.jpg
5,1,5,1,1,1,1,560.94,famous_male13.jpg
5,1,5,2,2,2,1,415.63,famous_female04.jpg
5,2,5,3,1,1,1,408.92,unknown_male03.jpg
5,1,5,4,2,1,0,408.89,famous_female19.jpg
5,2,5,5,2,2,1,544.89,unknown_female13.jpg
5,2,5,6,1,1,1,592.87,unknown_male11.jpg
5,2,5,7,2,2,1,439.61,unknown_female15.jpg
5,2,5,8,1,1,1,568.83,unknown_male05.jpg
5,2,5,9,2,2,1,320.82,unknown_female18.jpg
5,1,5,10,2,1,0,255.52,famous_female15.jpg
5,1,5,11,1,1,1,472.77,famous_male09.jpg
5,2,5,12,2,2,1,472.78,unknown_female05.jpg
5,1,5,13,2,2,1,464.77,famous_female09.jpg
5,2,5,14,1,1,1,512.78,unknown_male07.jpg
5,2,5,15,2,2,1,624.75,unknown_female02.jpg
5,2,5,16,1,1,1,504.72,unknown_male02.jpg
5,1,5,17,1,1,1,480.72,famous_male16.jpg
5,2,5,18,2,2,1,384.7,unknown_female10.jpg
5,2,5,19,1,1,1,504.7,unknown_male01.jpg
5,2,5,20,2,2,1,488.7,unknown_female07.jpg
5,2,5,21,1,1,1,488.69,unknown_male13.jpg
5,1,5,22,1,1,1,456.66,famous_male04.jpg
5,1,5,23,1,2,0,936.66,famous_male05.jpg
5,1,5,24,1,1,1,672.63,famous_male02.jpg
5,1,5,25,1,1,1,464.6,famous_male08.jpg
5,1,5,26,2,2,1,512.6,famous_female07.jpg
5,1,5,27,1,1,1,744.58,famous_male12.jpg
5,1,5,28,1,1,1,503.32,famous_male01.jpg
5,1,5,29,2,2,1,432.56,famous_female16.jpg
5,2,5,30,1,1,1,480.54,unknown_male04.jpg
5,1,5,31,1,1,1,512.54,famous_male17.jpg
5,1,5,32,2,2,1,520.53,famous_female06.jpg
5,1,5,33,2,2,1,496.51,famous_female10.jpg
5,2,5,34,2,2,1,479.15,unknown_female20.jpg
5,2,5,35,1,1,1,400.51,unknown_male19.jpg
5,2,5,36,1,1,1,504.48,unknown_male18.jpg
5,2,5,37,2,2,1,544.45,unknown_female19.jpg
5,1,5,38,2,2,1,416.46,famous_female14.jpg
5,1,5,39,2,2,1,400.43,famous_female05.jpg
5,2,5,40,2,2,1,311.07,unknown_female12.jpg
5,2,6,1,2,2,1,447.83,unknown_female15.jpg
5,2,6,2,1,1,1,463.75,unknown_male05.jpg
5,2,6,3,2,2,1,447.73,unknown_female10.jpg
5,2,6,4,2,2,1,535.68,unknown_female18.jpg
5,1,6,5,2,2,1,431.75,famous_female16.jpg
5,2,6,6,2,2,1,391.7,unknown_female12.jpg
5,1,6,7,2,2,1,319.68,famous_female04.jpg
5,1,6,8,1,1,1,471.67,famous_male17.jpg
5,1,6,9,1,1,1,359.62,famous_male08.jpg
5,2,6,10,2,1,0,311.64,unknown_female07.jpg
5,1,6,11,2,2,1,415.6,famous_female05.jpg
5,1,6,12,2,2,1,343.6,famous_female15.jpg
5,1,6,13,2,2,1,399.59,famous_female09.jpg
5,1,6,14,1,1,1,663.58,famous_male04.jpg
5,2,6,15,1,1,1,631.58,unknown_male19.jpg
5,2,6,16,2,1,0,342.16,unknown_female20.jpg
5,2,6,17,2,2,1,511.54,unknown_female02.jpg
5,2,6,18,1,1,1,590.27,unknown_male13.jpg
5,2,6,19,1,1,1,471.52,unknown_male18.jpg
5,1,6,20,2,2,1,591.5,famous_female19.jpg
5,2,6,21,1,1,1,487.46,unknown_male04.jpg
5,1,6,22,2,2,1,479.48,famous_female10.jpg
5,2,6,23,1,1,1,519.46,unknown_male03.jpg
5,1,6,24,1,1,1,495.44,famous_male16.jpg
5,1,6,25,1,1,1,431.41,famous_male12.jpg
5,2,6,26,2,2,1,455.42,unknown_female19.jpg
5,1,6,27,2,2,1,439.41,famous_female06.jpg
5,2,6,28,1,1,1,583.39,unknown_male02.jpg
5,1,6,29,1,1,1,479.38,famous_male09.jpg
5,2,6,30,2,2,1,399.37,unknown_female05.jpg
5,2,6,31,1,1,1,542.07,unknown_male07.jpg
5,1,6,32,1,1,1,711.35,famous_male05.jpg
5,1,6,33,2,2,1,479.32,famous_female07.jpg
5,2,6,34,2,2,1,439.32,unknown_female13.jpg
5,2,6,35,1,1,1,455.27,unknown_male01.jpg
5,1,6,36,2,2,1,479.29,famous_female14.jpg
5,1,6,37,1,1,1,599.25,famous_male02.jpg
5,1,6,38,1,1,1,615.26,famous_male13.jpg
5,1,6,39,1,1,1,383.25,famous_male01.jpg
5,2,6,40,1,1,1,439.23,unknown_male11.jpg
5,1,7,1,1,1,1,703.74,famous_male08.jpg
5,2,7,2,2,2,1,503.74,unknown_female05.jpg
5,2,7,3,1,1,1,631.73,unknown_male05.jpg
5,1,7,4,1,1,1,646.35,famous_male01.jpg
5,1,7,5,2,2,1,447.68,famous_female05.jpg
5,2,7,6,2,2,1,423.66,unknown_female02.jpg
5,2,7,7,1,1,1,446.33,unknown_male18.jpg
5,1,7,8,1,1,1,327.65,famous_male16.jpg
5,1,7,9,1,1,1,479.63,famous_male04.jpg
5,2,7,10,1,1,1,343.61,unknown_male01.jpg
5,2,7,11,1,1,1,383.58,unknown_male13.jpg
5,2,7,12,1,1,1,366.28,unknown_male07.jpg
5,1,7,13,1,1,1,415.58,famous_male05.jpg
5,2,7,14,2,2,1,399.57,unknown_female20.jpg
5,2,7,15,1,1,1,479.57,unknown_male19.jpg
5,1,7,16,1,1,1,471.53,famous_male02.jpg
5,2,7,17,2,2,1,415.5,unknown_female18.jpg
5,2,7,18,1,1,1,383.52,unknown_male04.jpg
5,1,7,19,2,2,1,479.5,famous_female14.jpg
5,1,7,20,2,2,1,511.49,famous_female10.jpg
5,2,7,21,2,2,1,487.53,unknown_female10.jpg
5,1,7,22,2,2,1,303.45,famous_female06.jpg
5,2,7,23,1,1,1,447.42,unknown_male02.jpg
5,2,7,24,1,1,1,423.43,unknown_male03.jpg
5,1,7,25,2,2,1,431.42,famous_female07.jpg
5,1,7,26,1,1,1,527.41,famous_male17.jpg
5,1,7,27,1,1,1,559.4,famous_male12.jpg
5,1,7,28,1,1,1,415.38,famous_male09.jpg
5,1,7,29,2,2,1,391.36,famous_female09.jpg
5,2,7,30,2,2,1,431.35,unknown_female12.jpg
5,2,7,31,1,1,1,511.33,unknown_male11.jpg
5,1,7,32,2,2,1,495.33,famous_female15.jpg
5,1,7,33,1,1,1,375.31,famous_male13.jpg
5,2,7,34,2,2,1,421.96,unknown_female13.jpg
5,2,7,35,2,2,1,477.95,unknown_female15.jpg
5,2,7,36,2,2,1,471.28,unknown_female07.jpg
5,1,7,37,2,2,1,391.25,famous_female16.jpg
5,1,7,38,2,2,1,535.29,famous_female19.jpg
5,1,7,39,2,2,1,431.25,famous_female04.jpg
5,2,7,40,2,2,1,335.26,unknown_female19.jpg
5,2,8,1,1,1,1,464.72,unknown_male03.jpg
5,2,8,2,1,1,1,432.73,unknown_male11.jpg
5,1,8,3,1,1,1,320.72,famous_male13.jpg
5,2,8,4,1,1,1,239.42,unknown_male19.jpg
5,2,8,5,1,1,1,344.7,unknown_male18.jpg
5,1,8,6,1,1,1,424.67,famous_male09.jpg
5,1,8,7,2,1,0,336.64,famous_female15.jpg
5,1,8,8,1,1,1,448.69,famous_male04.jpg
5,2,8,9,1,1,1,392.62,unknown_male04.jpg
5,1,8,10,1,1,1,536.6,famous_male17.jpg
5,2,8,11,2,2,1,616.61,unknown_female13.jpg
5,2,8,12,2,2,1,448.58,unknown_female19.jpg
5,1,8,13,1,1,1,488.56,famous_male01.jpg
5,1,8,14,2,2,1,560.56,famous_female07.jpg
5,1,8,15,2,2,1,768.61,famous_female04.jpg
5,1,8,16,2,2,1,608.5,famous_female06.jpg
5,2,8,17,2,2,1,504.51,unknown_female12.jpg
5,2,8,18,1,1,1,904.49,unknown_male07.jpg
5,2,8,19,2,2,1,512.49,unknown_female07.jpg
5,1,8,20,1,1,1,464.47,famous_male08.jpg
5,2,8,21,2,1,0,352.45,unknown_female02.jpg
5,1,8,22,2,2,1,488.45,famous_female05.jpg
5,1,8,23,1,1,1,447.14,famous_male05.jpg
5,2,8,24,1,1,1,672.41,unknown_male02.jpg
5,2,8,25,2,2,1,440.34,unknown_female05.jpg
5,1,8,26,2,2,1,600.39,famous_female19.jpg
5,1,8,27,2,2,1,424.37,famous_female14.jpg
5,2,8,28,1,1,1,392.36,unknown_male05.jpg
5,1,8,29,1,1,1,440.34,famous_male16.jpg
5,2,8,30,1,1,1,470.98,unknown_male01.jpg
5,2,8,31,2,2,1,432.31,unknown_female20.jpg
5,1,8,32,1,1,1,448.31,famous_male02.jpg
5,2,8,33,2,2,1,512.3,unknown_female10.jpg
5,1,8,34,2,2,1,616.28,famous_female16.jpg
5,2,8,35,1,1,1,640.26,unknown_male13.jpg
5,1,8,36,2,2,1,272.25,famous_female09.jpg
5,1,8,37,2,2,1,400.21,famous_female10.jpg
5,2,8,38,2,2,1,368.21,unknown_female15.jpg
5,1,8,39,1,2,0,232.21,famous_male12.jpg
5,2,8,40,2,2,1,486.89,unknown_female18.jpg
6,2,1,1,1,1,1,861.57,unknown_male14.jpg
6,2,1,2,2,2,1,460.92,unknown_female12.jpg
6,1,1,3,1,1,1,532.85,famous_male05.jpg
6,1,1,4,1,1,1,620.83,famous_male01.jpg
6,1,1,5,2,2,1,604.83,famous_female16.jpg
6,2,1,6,1,1,1,420.83,unknown_male13.jpg
6,2,1,7,1,1,1,572.8,unknown_male02.jpg
6,1,1,8,1,1,1,443.51,famous_male18.jpg
6,1,1,9,1,1,1,548.79,famous_male06.jpg
6,1,1,10,1,1,1,388.79,famous_male16.jpg
6,2,1,11,1,1,1,428.71,unknown_male12.jpg
6,2,1,12,1,1,1,364.73,unknown_male20.jpg
6,1,1,13,2,2,1,404.7,famous_female12.jpg
6,1,1,14,2,2,1,412.25,famous_female09.jpg
6,1,1,15,2,2,1,363.4,famous_female04.jpg
6,2,1,16,2,2,1,364.69,unknown_female09.jpg
6,1,1,17,1,1,1,396.66,famous_male13.jpg
6,1,1,18,1,1,1,404.65,famous_male08.jpg
6,1,1,19,2,2,1,395.33,famous_female08.jpg
6,1,1,20,2,2,1,348.62,famous_female01.jpg
6,2,1,21,1,1,1,340.6,unknown_male07.jpg
6,1,1,22,1,1,1,236.58,famous_male03.jpg
6,2,1,23,2,2,1,420.56,unknown_female20.jpg
6,2,1,24,1,1,1,364.56,unknown_male06.jpg
6,2,1,25,2,2,1,380.55,unknown_female19.jpg
6,1,1,26,1,1,1,308.53,famous_male09.jpg
6,2,1,27,1,1,1,396.52,unknown_male10.jpg
6,2,1,28,2,1,0,412.49,unknown_female14.jpg
6,2,1,29,1,1,1,388.48,unknown_male18.jpg
6,2,1,30,2,2,1,332.48,unknown_female11.jpg
6,1,1,31,2,2,1,428.4,famous_female05.jpg
6,1,1,32,2,2,1,420.46,famous_female06.jpg
6,2,1,33,1,1,1,364.45,unknown_male19.jpg
6,1,1,34,2,2,1,516.43,famous_female19.jpg
6,1,1,35,1,1,1,436.42,famous_male20.jpg
6,2,1,36,2,2,1,460.4,unknown_female06.jpg
6,2,1,37,2,2,1,595.1,unknown_female03.jpg
6,2,1,38,2,2,1,492.26,unknown_female02.jpg
6,2,1,39,2,2,1,476.35,unknown_female10.jpg
6,1,1,40,2,2,1,556.4,famous_female17.jpg
6,2,2,1,1,1,1,487.28,unknown_male14.jpg
6,2,2,2,2,2,1,367.2,unknown_female14.jpg
6,1,2,3,2,2,1,415.23,famous_female17.jpg
6,2,2,4,2,2,1,423.22,unknown_female06.jpg
6,1,2,5,1,1,1,365.95,famous_male18.jpg
6,2,2,6,1,1,1,341.95,unknown_male02.jpg
6,1,2,7,1,1,1,359.18,famous_male03.jpg
6,2,2,8,2,2,1,383.18,unknown_female12.jpg
6,2,2,9,2,2,1,309.86,unknown_female03.jpg
6,1,2,10,2,2,1,367.23,famous_female01.jpg
6,2,2,11,2,2,1,373.83,unknown_female11.jpg
6,1,2,12,2,2,1,463.14,famous_female06.jpg
6,2,2,13,2,2,1,453.84,unknown_female02.jpg
6,1,2,14,1,1,1,535.12,famous_male01.jpg
6,1,2,15,1,1,1,479.06,famous_male08.jpg
6,2,2,16,2,2,1,397.77,unknown_female10.jpg
6,2,2,17,2,2,1,381.8,unknown_female20.jpg
6,2,2,18,1,1,1,735.02,unknown_male19.jpg
6,1,2,19,1,1,1,391,famous_male05.jpg
6,2,2,20,1,1,1,487.02,unknown_male06.jpg
6,1,2,21,2,2,1,462.99,famous_female12.jpg
6,2,2,22,1,1,1,526.97,unknown_male07.jpg
6,1,2,23,2,2,1,398.95,famous_female08.jpg
6,2,2,24,1,1,1,429.69,unknown_male13.jpg
6,2,2,25,2,2,1,573.72,unknown_female19.jpg
6,2,2,26,1,1,1,478.92,unknown_male10.jpg
6,1,2,27,2,2,1,510.91,famous_female19.jpg
6,2,2,28,1,1,1,438.89,unknown_male20.jpg
6,1,2,29,1,1,1,462.88,famous_male06.jpg
6,1,2,30,2,2,1,470.78,famous_female05.jpg
6,1,2,31,1,1,1,438.86,famous_male09.jpg
6,2,2,32,2,2,1,462.83,unknown_female09.jpg
6,1,2,33,2,2,1,486.84,famous_female04.jpg
6,1,2,34,1,1,1,582.81,famous_male13.jpg
6,1,2,35,2,2,1,565.55,famous_female09.jpg
6,1,2,36,1,1,1,390.8,famous_male16.jpg
6,1,2,37,2,2,1,510.78,famous_female16.jpg
6,2,2,38,1,1,1,446.77,unknown_male12.jpg
6,1,2,39,1,1,1,398.76,famous_male20.jpg
6,2,2,40,1,1,1,493.46,unknown_male18.jpg
6,2,3,1,2,2,1,537.74,unknown_female19.jpg
6,2,3,2,1,1,1,321.72,unknown_male19.jpg
6,2,3,3,2,2,1,376.46,unknown_female06.jpg
6,1,3,4,1,1,1,345.64,famous_male01.jpg
6,1,3,5,1,1,1,344.41,famous_male03.jpg
6,2,3,6,2,2,1,409.67,unknown_female14.jpg
6,2,3,7,1,1,1,432.39,unknown_male06.jpg
6,2,3,8,2,2,1,352.4,unknown_female11.jpg
6,2,3,9,2,2,1,617.64,unknown_female03.jpg
6,2,3,10,1,1,1,521.62,unknown_male13.jpg
6,2,3,11,2,2,1,624.34,unknown_female02.jpg
6,1,3,12,2,2,1,649.59,famous_female12.jpg
6,1,3,13,1,1,1,505.58,famous_male08.jpg
6,1,3,14,1,2,0,553.56,famous_male18.jpg
6,2,3,15,2,2,1,465.55,unknown_female09.jpg
6,1,3,16,1,1,1,425.53,famous_male20.jpg
6,2,3,17,1,1,1,473.52,unknown_male20.jpg
6,1,3,18,1,1,1,401.52,famous_male16.jpg
6,2,3,19,1,1,1,409.49,unknown_male18.jpg
6,2,3,20,1,1,1,336.24,unknown_male02.jpg
6,2,3,21,1,1,1,296.23,unknown_male12.jpg
6,1,3,22,2,2,1,569.45,famous_female01.jpg
6,2,3,23,1,1,1,376.11,unknown_male07.jpg
6,1,3,24,2,2,1,473.43,famous_female16.jpg
6,1,3,25,1,1,1,432.13,famous_male13.jpg
6,1,3,26,2,2,1,433.4,famous_female06.jpg
6,1,3,27,2,2,1,529.38,famous_female04.jpg
6,2,3,28,1,1,1,464.12,unknown_male10.jpg
6,2,3,29,2,2,1,424.07,unknown_female12.jpg
6,1,3,30,2,2,1,561.38,famous_female19.jpg
6,2,3,31,2,2,1,568.08,unknown_female20.jpg
6,1,3,32,2,2,1,416.04,famous_female08.jpg
6,1,3,33,1,1,1,401.32,famous_male06.jpg
6,1,3,34,1,1,1,385.31,famous_male05.jpg
6,1,3,35,2,2,1,521.27,famous_female05.jpg
6,2,3,36,1,1,1,535.93,unknown_male14.jpg
6,1,3,37,2,2,1,529.26,famous_female17.jpg
6,1,3,38,2,2,1,609.25,famous_female09.jpg
6,2,3,39,2,2,1,545.23,unknown_female10.jpg
6,1,3,40,1,1,1,553.22,famous_male09.jpg
6,1,4,1,2,2,1,497.76,famous_female01.jpg
6,2,4,2,1,1,1,457.71,unknown_male10.jpg
6,1,4,3,2,2,1,465.73,famous_female04.jpg
6,1,4,4,1,1,1,497.7,famous_male18.jpg
6,1,4,5,1,1,1,521.67,famous_male05.jpg
6,2,4,6,2,2,1,608.43,unknown_female19.jpg
6,1,4,7,2,1,0,377.67,famous_female09.jpg
6,1,4,8,2,2,1,448.35,famous_female05.jpg
6,2,4,9,2,2,1,440.3,unknown_female20.jpg
6,1,4,10,1,1,1,441.6,famous_male01.jpg
6,2,4,11,1,1,1,449.55,unknown_male14.jpg
6,2,4,12,2,2,1,465.57,unknown_female11.jpg
6,2,4,13,1,1,1,344.24,unknown_male19.jpg
6,1,4,14,1,1,1,376.27,famous_male09.jpg
6,2,4,15,1,1,1,377.53,unknown_male07.jpg
6,1,4,16,1,1,1,368.25,famous_male03.jpg
6,1,4,17,2,1,0,361.51,famous_female06.jpg
6,2,4,18,1,1,1,528.25,unknown_male18.jpg
6,2,4,19,1,1,1,409.49,unknown_male13.jpg
6,1,4,20,1,1,1,328.14,famous_male16.jpg
6,2,4,21,2,2,1,449.45,unknown_female09.jpg
6,1,4,22,1,1,1,424.16,famous_male06.jpg
6,1,4,23,2,2,1,409.44,famous_female16.jpg
6,1,4,24,2,2,1,472.16,famous_female19.jpg
6,1,4,25,2,2,1,504.07,famous_female17.jpg
6,2,4,26,1,1,1,384.1,unknown_male02.jpg
6,2,4,27,2,2,1,368.12,unknown_female06.jpg
6,2,4,28,1,1,1,361.35,unknown_male12.jpg
6,1,4,29,1,1,1,440.05,famous_male20.jpg
6,2,4,30,2,2,1,544.08,unknown_female03.jpg
6,1,4,31,1,1,1,311.93,famous_male08.jpg
6,2,4,32,2,2,1,361.38,unknown_female14.jpg
6,2,4,33,1,1,1,376.03,unknown_male06.jpg
6,2,4,34,1,1,1,433.28,unknown_male20.jpg
6,1,4,35,2,2,1,447.93,famous_female12.jpg
6,2,4,36,2,2,1,520,unknown_female12.jpg
6,1,4,37,1,1,1,383.94,famous_male13.jpg
6,1,4,38,2,2,1,561.24,famous_female08.jpg
6,2,4,39,2,1,0,447.97,unknown_female02.jpg
6,2,4,40,2,2,1,481.2,unknown_female10.jpg
6,2,5,1,1,1,1,529.72,unknown_male06.jpg
6,2,5,2,1,1,1,408.53,unknown_male19.jpg
6,1,5,3,1,1,1,400.5,famous_male09.jpg
6,1,5,4,2,2,1,409.76,famous_female05.jpg
6,1,5,5,2,2,1,472.4,famous_female17.jpg
6,1,5,6,2,2,1,617.65,famous_female08.jpg
6,1,5,7,1,1,1,409.74,famous_male13.jpg
6,2,5,8,1,1,1,441.7,unknown_male13.jpg
6,2,5,9,2,2,1,625.72,unknown_female19.jpg
6,1,5,10,2,2,1,520.39,famous_female01.jpg
6,2,5,11,1,1,1,560.37,unknown_male20.jpg
6,1,5,12,1,1,1,560.23,famous_male08.jpg
6,2,5,13,1,1,1,513.64,unknown_male18.jpg
6,1,5,14,1,1,1,473.56,famous_male20.jpg
6,1,5,15,1,1,1,425.6,famous_male06.jpg
6,2,5,16,2,2,1,521.58,unknown_female02.jpg
6,1,5,17,2,2,1,488.19,famous_female19.jpg
6,1,5,18,1,1,1,489.44,famous_male03.jpg
6,2,5,19,2,2,1,537.54,unknown_female12.jpg
6,2,5,20,2,2,1,641.54,unknown_female03.jpg
6,2,5,21,2,1,0,976.24,unknown_female14.jpg
6,1,5,22,1,2,0,601.5,famous_male16.jpg
6,2,5,23,2,2,1,832.24,unknown_female20.jpg
6,2,5,24,1,1,1,521.48,unknown_male12.jpg
6,2,5,25,1,1,1,529.37,unknown_male10.jpg
6,1,5,26,2,2,1,617.45,famous_female06.jpg
6,2,5,27,1,1,1,673.47,unknown_male14.jpg
6,2,5,28,1,1,1,536.14,unknown_male02.jpg
6,1,5,29,1,1,1,489.42,famous_male01.jpg
6,2,5,30,2,2,1,625.4,unknown_female09.jpg
6,1,5,31,1,1,1,697.39,famous_male05.jpg
6,1,5,32,2,2,1,512.13,famous_female09.jpg
6,1,5,33,2,2,1,520.08,famous_female16.jpg
6,1,5,34,1,1,1,521.36,famous_male18.jpg
6,1,5,35,2,2,1,513.33,famous_female04.jpg
6,2,5,36,2,2,1,521.33,unknown_female10.jpg
6,2,5,37,1,1,1,441.31,unknown_male07.jpg
6,2,5,38,2,2,1,544.01,unknown_female11.jpg
6,2,5,39,2,2,1,439.98,unknown_female06.jpg
6,1,5,40,2,2,1,465.27,famous_female12.jpg
6,1,6,1,1,1,1,433.87,famous_male13.jpg
6,2,6,2,2,2,1,417.84,unknown_female02.jpg
6,1,6,3,2,2,1,616.51,famous_female01.jpg
6,2,6,4,1,1,1,409.82,unknown_male19.jpg
6,2,6,5,2,2,1,961.82,unknown_female14.jpg
6,1,6,6,1,1,1,457.81,famous_male08.jpg
6,2,6,7,2,2,1,521.78,unknown_female03.jpg
6,2,6,8,2,2,1,616.45,unknown_female06.jpg
6,2,6,9,2,2,1,609.77,unknown_female20.jpg
6,1,6,10,2,2,1,497.75,famous_female04.jpg
6,1,6,11,1,1,1,393.72,famous_male09.jpg
6,1,6,12,1,1,1,481.74,famous_male01.jpg
6,2,6,13,1,1,1,417.69,unknown_male02.jpg
6,1,6,14,2,2,1,520.39,famous_female17.jpg
6,1,6,15,2,2,1,432.3,famous_female09.jpg
6,2,6,16,1,1,1,433.67,unknown_male06.jpg
6,2,6,17,1,1,1,393.67,unknown_male20.jpg
6,2,6,18,2,2,1,681.61,unknown_female19.jpg
6,2,6,19,1,1,1,312.31,unknown_male10.jpg
6,1,6,20,2,2,1,632.35,famous_female06.jpg
6,1,6,21,1,1,1,528.25,famous_male06.jpg
6,1,6,22,2,2,1,697.57,famous_female12.jpg
6,1,6,23,1,1,1,465.59,famous_male05.jpg
6,1,6,24,1,1,1,560.27,famous_male18.jpg
6,2,6,25,1,1,1,401.54,unknown_male12.jpg
6,2,6,26,2,2,1,473.53,unknown_female10.jpg
6,1,6,27,2,2,1,408.17,famous_female08.jpg
6,1,6,28,2,2,1,617.62,famous_female05.jpg
6,2,6,29,2,2,1,697.42,unknown_female09.jpg
6,2,6,30,1,1,1,496.22,unknown_male13.jpg
6,1,6,31,1,1,1,553.46,famous_male16.jpg
6,2,6,32,1,2,0,553.45,unknown_male07.jpg
6,2,6,33,2,2,1,513.44,unknown_female12.jpg
6,2,6,34,2,2,1,593.53,unknown_female11.jpg
6,1,6,35,2,2,1,545.4,famous_female16.jpg
6,1,6,36,1,1,1,625.39,famous_male03.jpg
6,1,6,37,1,2,0,449.38,famous_male20.jpg
6,2,6,38,1,1,1,513.36,unknown_male18.jpg
6,2,6,39,1,1,1,425.35,unknown_male14.jpg
6,1,6,40,2,1,0,352.09,famous_female19.jpg
6,2,7,1,2,2,1,532.09,unknown_female11.jpg
6,1,7,2,1,1,1,364,famous_male03.jpg
6,2,7,3,2,2,1,724,unknown_female19.jpg
6,2,7,4,1,1,1,619.97,unknown_male07.jpg
6,1,7,5,2,2,1,530.68,famous_female04.jpg
6,2,7,6,1,1,1,467.95,unknown_male13.jpg
6,1,7,7,2,2,1,484.02,famous_female01.jpg
6,1,7,8,2,2,1,547.94,famous_female06.jpg
6,1,7,9,2,1,0,395.93,famous_female12.jpg
6,2,7,10,2,2,1,402.63,unknown_female12.jpg
6,1,7,11,1,1,1,538.63,famous_male20.jpg
6,1,7,12,1,1,1,379.86,famous_male01.jpg
6,1,7,13,1,1,1,483.95,famous_male05.jpg
6,2,7,14,2,2,1,602.57,unknown_female02.jpg
6,1,7,15,1,1,1,595.83,famous_male09.jpg
6,2,7,16,2,2,1,571.82,unknown_female03.jpg
6,1,7,17,2,2,1,459.67,famous_female05.jpg
6,2,7,18,1,1,1,490.48,unknown_male02.jpg
6,1,7,19,1,1,1,427.11,famous_male13.jpg
6,2,7,20,1,1,1,971.06,unknown_male19.jpg
6,1,7,21,2,2,1,507.08,famous_female16.jpg
6,1,7,22,2,1,0,371.13,famous_female09.jpg
6,2,7,23,2,2,1,490.98,unknown_female20.jpg
6,1,7,24,1,1,1,409.68,famous_male16.jpg
6,2,7,25,1,1,1,387.03,unknown_male20.jpg
6,2,7,26,2,2,1,474.99,unknown_female09.jpg
6,1,7,27,1,1,1,370.98,famous_male08.jpg
6,2,7,28,1,1,1,522.97,unknown_male18.jpg
6,1,7,29,2,2,1,457.69,famous_female08.jpg
6,2,7,30,2,2,1,489.61,unknown_female06.jpg
6,2,7,31,2,2,1,522.91,unknown_female14.jpg
6,2,7,32,1,1,1,465.63,unknown_male14.jpg
6,1,7,33,1,1,1,442.89,famous_male06.jpg
6,2,7,34,1,1,1,329.6,unknown_male12.jpg
6,2,7,35,2,2,1,410.87,unknown_female10.jpg
6,1,7,36,2,2,1,562.86,famous_female17.jpg
6,1,7,37,1,1,1,418.93,famous_male18.jpg
6,2,7,38,1,1,1,402.82,unknown_male10.jpg
6,1,7,39,2,2,1,786.74,famous_female19.jpg
6,2,7,40,1,1,1,529.53,unknown_male06.jpg
6,2,8,1,1,1,1,482.76,unknown_male06.jpg
6,1,8,2,2,2,1,378.74,famous_female08.jpg
6,2,8,3,1,1,1,385.37,unknown_male13.jpg
6,1,8,4,1,1,1,434.66,famous_male09.jpg
6,1,8,5,1,2,0,514.65,famous_male01.jpg
6,2,8,6,1,1,1,537.28,unknown_male18.jpg
6,2,8,7,1,1,1,402.61,unknown_male14.jpg
6,2,8,8,2,2,1,474.61,unknown_female19.jpg
6,1,8,9,2,2,1,609.33,famous_female06.jpg
6,1,8,10,2,2,1,690.57,famous_female05.jpg
6,2,8,11,1,1,1,569.22,unknown_male07.jpg
6,1,8,12,1,1,1,578.58,famous_male20.jpg
6,2,8,13,2,2,1,649.19,unknown_female14.jpg
6,1,8,14,1,1,1,505.23,famous_male18.jpg
6,2,8,15,2,2,1,754.5,unknown_female11.jpg
6,1,8,16,1,1,1,866.42,famous_male06.jpg
6,1,8,17,2,2,1,506.49,famous_female12.jpg
6,2,8,18,2,2,1,746.48,unknown_female12.jpg
6,1,8,19,2,1,0,617.16,famous_female17.jpg
6,1,8,20,2,2,1,474.45,famous_female04.jpg
6,2,8,21,2,1,0,554.42,unknown_female09.jpg
6,1,8,22,1,1,1,506.42,famous_male13.jpg
6,1,8,23,2,2,1,497.07,famous_female19.jpg
6,2,8,24,1,1,1,410.42,unknown_male12.jpg
6,2,8,25,2,2,1,488.96,unknown_female06.jpg
6,2,8,26,1,1,1,578.35,unknown_male02.jpg
6,1,8,27,1,1,1,346.36,famous_male05.jpg
6,2,8,28,1,1,1,514.33,unknown_male20.jpg
6,1,8,29,2,2,1,474.31,famous_female09.jpg
6,2,8,30,2,1,0,546.3,unknown_female10.jpg
6,2,8,31,1,1,1,402.28,unknown_male10.jpg
6,2,8,32,2,2,1,408.97,unknown_female03.jpg
6,2,8,33,1,1,1,570.2,unknown_male19.jpg
6,2,8,34,2,2,1,465,unknown_female02.jpg
6,1,8,35,1,1,1,480.95,famous_male03.jpg
6,1,8,36,2,2,1,464.96,famous_female01.jpg
6,1,8,37,2,2,1,498.26,famous_female16.jpg
6,1,8,38,1,1,1,448.87,famous_male08.jpg
6,1,8,39,1,1,1,562.18,famous_male16.jpg
6,2,8,40,2,2,1,482.18,unknown_female20.jpg
7,1,1,1,2,2,1,1240.25,famous_female09.jpg
7,1,1,2,2,2,1,624.26,famous_female05.jpg
7,1,1,3,1,1,1,936.22,famous_male18.jpg
7,2,1,4,1,1,1,1136.21,unknown_male01.jpg
7,1,1,5,1,1,1,664.2,famous_male08.jpg
7,2,1,6,1,1,1,664.22,unknown_male06.jpg
7,1,1,7,2,2,1,903.37,famous_female01.jpg
7,2,1,8,2,2,1,639.57,unknown_female11.jpg
7,2,1,9,1,1,1,592.22,unknown_male08.jpg
7,2,1,10,1,1,1,648.13,unknown_male07.jpg
7,1,1,11,2,2,1,655.41,famous_female11.jpg
7,1,1,12,2,2,1,647.4,famous_female07.jpg
7,2,1,13,1,1,1,807.8,unknown_male15.jpg
7,2,1,14,1,1,1,695.8,unknown_male13.jpg
7,1,1,15,2,2,1,687.38,famous_female19.jpg
7,1,1,16,1,1,1,664.05,famous_male11.jpg
7,2,1,17,1,1,1,871.35,unknown_male14.jpg
7,1,1,18,1,1,1,631.76,famous_male07.jpg
7,1,1,19,1,1,1,528.04,famous_male09.jpg
7,1,1,20,1,1,1,552.07,famous_male01.jpg
7,2,1,21,2,2,1,839.31,unknown_female08.jpg
7,2,1,22,2,2,1,599.96,unknown_female12.jpg
7,1,1,23,2,2,1,815.54,famous_female06.jpg
7,2,1,24,2,2,1,703.95,unknown_female19.jpg
7,1,1,25,1,1,1,631.52,famous_male16.jpg
7,2,1,26,1,1,1,631.91,unknown_male12.jpg
7,1,1,27,2,2,1,815.45,famous_female16.jpg
7,2,1,28,1,1,1,671.89,unknown_male02.jpg
7,1,1,29,1,1,1,631.87,famous_male17.jpg
7,1,1,30,1,1,1,991.44,famous_male06.jpg
7,2,1,31,2,2,1,855.85,unknown_female10.jpg
7,1,1,32,1,1,1,671.84,famous_male12.jpg
7,2,1,33,2,2,1,535.82,unknown_female17.jpg
7,2,1,34,2,2,1,575.83,unknown_female16.jpg
7,1,1,35,2,2,1,583.78,famous_female13.jpg
7,2,1,36,2,2,1,575.78,unknown_female15.jpg
7,1,1,37,2,1,0,751.49,famous_female03.jpg
7,2,1,38,2,2,1,647.76,unknown_female09.jpg
7,2,1,39,2,2,1,599.76,unknown_female14.jpg
7,2,1,40,1,1,1,711.44,unknown_male10.jpg
7,1,2,1,2,2,1,599.76,famous_female11.jpg
7,2,2,2,1,1,1,535.39,unknown_male15.jpg
7,2,2,3,1,1,1,583.67,unknown_male02.jpg
7,1,2,4,2,2,1,455.57,famous_female19.jpg
7,2,2,5,2,2,1,399.63,unknown_female09.jpg
7,2,2,6,2,2,1,399.61,unknown_female12.jpg
7,1,2,7,1,1,1,503.59,famous_male07.jpg
7,1,2,8,1,1,1,471.58,famous_male17.jpg
7,2,2,9,1,1,1,455.28,unknown_male13.jpg
7,1,2,10,2,2,1,671.28,famous_female01.jpg
7,2,2,11,1,1,1,591.26,unknown_male14.jpg
7,1,2,12,2,2,1,607.27,famous_female13.jpg
7,2,2,13,1,1,1,559.24,unknown_male08.jpg
7,2,2,14,2,2,1,582.84,unknown_female19.jpg
7,2,2,15,1,1,1,710.79,unknown_male06.jpg
7,1,2,16,1,1,1,574.83,famous_male01.jpg
7,1,2,17,2,2,1,559.19,famous_female03.jpg
7,1,2,18,1,1,1,655.17,famous_male06.jpg
7,1,2,19,1,1,1,591.43,famous_male16.jpg
7,2,2,20,1,1,1,679.16,unknown_male07.jpg
7,2,2,21,2,2,1,727.14,unknown_female16.jpg
7,1,2,22,2,2,1,583.15,famous_female06.jpg
7,2,2,23,2,2,1,615.36,unknown_female10.jpg
7,2,2,24,2,2,1,582.46,unknown_female15.jpg
7,1,2,25,2,2,1,543.36,famous_female07.jpg
7,2,2,26,2,2,1,639.35,unknown_female14.jpg
7,1,2,27,2,2,1,575.33,famous_female09.jpg
7,1,2,28,1,1,1,478.65,famous_male18.jpg
7,2,2,29,1,1,1,471.01,unknown_male12.jpg
7,1,2,30,1,1,1,495.3,famous_male11.jpg
7,1,2,31,2,2,1,575.02,famous_female05.jpg
7,1,2,32,1,1,1,599.27,famous_male12.jpg
7,1,2,33,2,2,1,542.59,famous_female16.jpg
7,2,2,34,1,1,1,654.95,unknown_male01.jpg
7,2,2,35,1,1,1,519.3,unknown_male10.jpg
7,1,2,36,1,1,1,630.54,famous_male08.jpg
7,1,2,37,1,1,1,654.5,famous_male09.jpg
7,2,2,38,2,2,1,590.89,unknown_female11.jpg
7,2,2,39,2,2,1,502.51,unknown_female17.jpg
7,2,2,40,2,2,1,478.87,unknown_female08.jpg
7,1,3,1,2,2,1,505.6,famous_female13.jpg
7,1,3,2,1,1,1,488.93,famous_male08.jpg
7,1,3,3,1,1,1,392.92,famous_male18.jpg
7,1,3,4,1,1,1,489.27,famous_male11.jpg
7,2,3,5,2,2,1,504.9,unknown_female09.jpg
7,1,3,6,1,1,1,600.85,famous_male09.jpg
7,1,3,7,1,1,1,617.25,famous_male12.jpg
7,2,3,8,2,2,1,441.22,unknown_female17.jpg
7,2,3,9,1,1,1,465.16,unknown_male10.jpg
7,2,3,10,2,2,1,736.81,unknown_female10.jpg
7,1,3,11,2,2,1,457.47,famous_female16.jpg
7,2,3,12,1,1,1,457.17,unknown_male08.jpg
7,1,3,13,2,2,1,464.77,famous_female09.jpg
7,2,3,14,1,1,1,753.15,unknown_male13.jpg
7,1,3,15,2,2,1,505.14,famous_female01.jpg
7,2,3,16,1,1,1,433.12,unknown_male01.jpg
7,2,3,17,2,2,1,384.71,unknown_female11.jpg
7,2,3,18,2,2,1,448.71,unknown_female12.jpg
7,1,3,19,2,2,1,440.82,famous_female11.jpg
7,1,3,20,2,2,1,553.07,famous_female07.jpg
7,2,3,21,1,1,1,545.33,unknown_male06.jpg
7,1,3,22,2,2,1,553.33,famous_female19.jpg
7,1,3,23,1,1,1,473.31,famous_male17.jpg
7,2,3,24,2,2,1,697.33,unknown_female19.jpg
7,2,3,25,1,1,1,625.36,unknown_male02.jpg
7,2,3,26,1,1,1,745.28,unknown_male15.jpg
7,2,3,27,2,2,1,625.24,unknown_female16.jpg
7,2,3,28,1,1,1,576.96,unknown_male12.jpg
7,2,3,29,2,2,1,545.25,unknown_female08.jpg
7,2,3,30,1,1,1,600.88,unknown_male07.jpg
7,1,3,31,1,1,1,553.2,famous_male06.jpg
7,1,3,32,2,2,1,592.91,famous_female05.jpg
7,1,3,33,2,2,1,601.17,famous_female03.jpg
7,1,3,34,1,1,1,561.16,famous_male07.jpg
7,1,3,35,1,1,1,456.21,famous_male16.jpg
7,2,3,36,2,2,1,449.15,unknown_female15.jpg
7,2,3,37,2,2,1,489.15,unknown_female14.jpg
7,1,3,38,1,1,1,537.12,famous_male01.jpg
7,2,3,39,1,1,1,465.21,unknown_male14.jpg
7,1,3,40,2,2,1,408.8,famous_female06.jpg
7,1,4,1,1,1,1,483.3,famous_male09.jpg
7,2,4,2,1,1,1,483.29,unknown_male14.jpg
7,2,4,3,2,2,1,467.28,unknown_female09.jpg
7,2,4,4,2,2,1,371.38,unknown_female17.jpg
7,2,4,5,1,1,1,443.25,unknown_male08.jpg
7,2,4,6,1,1,1,475.24,unknown_male07.jpg
7,2,4,7,1,1,1,451.23,unknown_male10.jpg
7,2,4,8,1,1,1,435.22,unknown_male02.jpg
7,2,4,9,2,2,1,459.21,unknown_female11.jpg
7,1,4,10,1,1,1,451.17,famous_male01.jpg
7,2,4,11,1,1,1,443.17,unknown_male06.jpg
7,1,4,12,2,2,1,547.15,famous_female19.jpg
7,1,4,13,2,2,1,443.14,famous_female01.jpg
7,2,4,14,2,2,1,387.13,unknown_female10.jpg
7,1,4,15,1,1,1,443.12,famous_male18.jpg
7,1,4,16,1,1,1,490.82,famous_male08.jpg
7,1,4,17,2,2,1,435.09,famous_female11.jpg
7,2,4,18,2,2,1,571.08,unknown_female14.jpg
7,2,4,19,2,2,1,562.78,unknown_female16.jpg
7,2,4,20,1,1,1,531.04,unknown_male15.jpg
7,1,4,21,1,1,1,427.03,famous_male11.jpg
7,1,4,22,1,1,1,435.02,famous_male17.jpg
7,1,4,23,1,1,1,499.01,famous_male06.jpg
7,2,4,24,2,1,0,579,unknown_female19.jpg
7,1,4,25,2,2,1,522.87,famous_female09.jpg
7,1,4,26,1,1,1,458.96,famous_male16.jpg
7,1,4,27,2,2,1,595.04,famous_female06.jpg
7,2,4,28,2,2,1,474.95,unknown_female12.jpg
7,1,4,29,2,2,1,554.93,famous_female13.jpg
7,2,4,30,2,2,1,642.63,unknown_female15.jpg
7,1,4,31,1,1,1,538.9,famous_male12.jpg
7,1,4,32,2,2,1,530.89,famous_female16.jpg
7,2,4,33,2,2,1,450.85,unknown_female08.jpg
7,2,4,34,1,1,1,706.89,unknown_male13.jpg
7,2,4,35,1,1,1,538.88,unknown_male12.jpg
7,1,4,36,2,2,1,450.48,famous_female07.jpg
7,1,4,37,2,2,1,458.85,famous_female03.jpg
7,1,4,38,1,1,1,522.88,famous_male07.jpg
7,2,4,39,1,1,1,610.14,unknown_male01.jpg
7,1,4,40,2,2,1,634.78,famous_female05.jpg
7,1,5,1,2,2,1,496.74,famous_female01.jpg
7,1,5,2,1,1,1,480.73,famous_male07.jpg
7,1,5,3,2,2,1,816.75,famous_female09.jpg
7,2,5,4,2,2,1,424.74,unknown_female10.jpg
7,2,5,5,1,1,1,512.69,unknown_male14.jpg
7,1,5,6,1,1,1,520,famous_male16.jpg
7,2,5,7,1,1,1,488.37,unknown_male07.jpg
7,2,5,8,1,1,1,456.68,unknown_male12.jpg
7,1,5,9,2,2,1,440.35,famous_female03.jpg
7,2,5,10,2,2,1,512.63,unknown_female19.jpg
7,2,5,11,2,2,1,464.62,unknown_female17.jpg
7,1,5,12,2,2,1,384.6,famous_female07.jpg
7,1,5,13,2,2,1,448.6,famous_female06.jpg
7,1,5,14,2,2,1,552.58,famous_female19.jpg
7,1,5,15,1,2,0,392.56,famous_male17.jpg
7,1,5,16,2,2,1,464.54,famous_female11.jpg
7,1,5,17,2,2,1,448.53,famous_female16.jpg
7,2,5,18,1,1,1,440.53,unknown_male06.jpg
7,2,5,19,1,1,1,400.52,unknown_male13.jpg
7,1,5,20,1,1,1,408.5,famous_male18.jpg
7,2,5,21,2,2,1,536.48,unknown_female14.jpg
7,1,5,22,1,1,1,503.78,famous_male09.jpg
7,2,5,23,1,1,1,600.16,unknown_male08.jpg
7,2,5,24,2,2,1,439.76,unknown_female11.jpg
7,2,5,25,2,2,1,368.42,unknown_female16.jpg
7,2,5,26,1,1,1,383.73,unknown_male10.jpg
7,2,5,27,2,2,1,384.14,unknown_female12.jpg
7,1,5,28,2,2,1,423.75,famous_female05.jpg
7,2,5,29,2,2,1,359.68,unknown_female15.jpg
7,1,5,30,1,1,1,471.68,famous_male06.jpg
7,2,5,31,1,1,1,455.56,unknown_male02.jpg
7,1,5,32,1,1,1,432.04,famous_male01.jpg
7,2,5,33,2,2,1,680.33,unknown_female08.jpg
7,2,5,34,1,1,1,528.36,unknown_male15.jpg
7,2,5,35,1,1,1,544.3,unknown_male01.jpg
7,1,5,36,2,2,1,488.27,famous_female13.jpg
7,1,5,37,1,1,1,408.26,famous_male08.jpg
7,2,5,38,2,2,1,432.25,unknown_female09.jpg
7,1,5,39,1,1,1,472.22,famous_male11.jpg
7,1,5,40,1,1,1,544.23,famous_male12.jpg
7,2,6,1,1,1,1,423.95,unknown_male06.jpg
7,2,6,2,1,1,1,351.95,unknown_male01.jpg
7,1,6,3,1,1,1,367.93,famous_male08.jpg
7,1,6,4,1,1,1,344,famous_male06.jpg
7,2,6,5,1,1,1,343.9,unknown_male02.jpg
7,1,6,6,1,1,1,359.89,famous_male18.jpg
7,1,6,7,2,2,1,439.88,famous_female09.jpg
7,2,6,8,2,2,1,399.88,unknown_female19.jpg
7,2,6,9,2,2,1,367.89,unknown_female10.jpg
7,2,6,10,2,2,1,343.82,unknown_female08.jpg
7,2,6,11,1,1,1,455.83,unknown_male08.jpg
7,2,6,12,2,2,1,399.81,unknown_female09.jpg
7,2,6,13,2,2,1,575.8,unknown_female11.jpg
7,2,6,14,1,1,1,495.78,unknown_male14.jpg
7,1,6,15,1,1,1,479.77,famous_male11.jpg
7,1,6,16,2,2,1,407.76,famous_female11.jpg
7,2,6,17,1,1,1,503.75,unknown_male12.jpg
7,1,6,18,1,1,1,471.73,famous_male17.jpg
7,2,6,19,1,1,1,575.71,unknown_male10.jpg
7,1,6,20,2,2,1,591.68,famous_female16.jpg
7,2,6,21,1,1,1,575.69,unknown_male15.jpg
7,2,6,22,2,2,1,551.66,unknown_female12.jpg
7,1,6,23,2,2,1,511.02,famous_female05.jpg
7,1,6,24,1,1,1,534.69,famous_male09.jpg
7,1,6,25,2,2,1,535.34,famous_female06.jpg
7,2,6,26,1,1,1,591.6,unknown_male07.jpg
7,1,6,27,2,2,1,663.61,famous_female19.jpg
7,1,6,28,1,1,1,535.59,famous_male01.jpg
7,1,6,29,1,1,1,567.61,famous_male16.jpg
7,1,6,30,1,1,1,455.57,famous_male07.jpg
7,1,6,31,1,1,1,463.63,famous_male12.jpg
7,1,6,32,2,2,1,511.55,famous_female07.jpg
7,2,6,33,2,2,1,527.52,unknown_female16.jpg
7,2,6,34,2,2,1,375.5,unknown_female14.jpg
7,1,6,35,2,2,1,407.5,famous_female03.jpg
7,1,6,36,2,2,1,407.48,famous_female01.jpg
7,2,6,37,1,1,1,487.47,unknown_male13.jpg
7,2,6,38,2,2,1,519.47,unknown_female15.jpg
7,2,6,39,2,2,1,559.42,unknown_female17.jpg
7,1,6,40,2,2,1,447.4,famous_female13.jpg
7,2,7,1,1,1,1,501.6,unknown_male13.jpg
7,1,7,2,2,2,1,525.59,famous_female19.jpg
7,2,7,3,1,1,1,589.5,unknown_male15.jpg
7,2,7,4,1,1,1,421.48,unknown_male12.jpg
7,2,7,5,2,2,1,485.48,unknown_female12.jpg
7,2,7,6,1,1,1,517.48,unknown_male07.jpg
7,1,7,7,1,1,1,477.45,famous_male06.jpg
7,2,7,8,2,2,1,373.46,unknown_female10.jpg
7,1,7,9,2,2,1,549.44,famous_female09.jpg
7,1,7,10,1,1,1,549.42,famous_male01.jpg
7,1,7,11,2,2,1,517.48,famous_female05.jpg
7,2,7,12,2,2,1,549.38,unknown_female19.jpg
7,1,7,13,2,2,1,629.46,famous_female01.jpg
7,1,7,14,1,1,1,437.35,famous_male08.jpg
7,1,7,15,1,1,1,517.36,famous_male12.jpg
7,2,7,16,1,1,1,437.34,unknown_male06.jpg
7,2,7,17,1,1,1,501.32,unknown_male01.jpg
7,1,7,18,2,2,1,469.4,famous_female07.jpg
7,1,7,19,2,2,1,525.31,famous_female11.jpg
7,2,7,20,2,2,1,637.29,unknown_female17.jpg
7,1,7,21,2,2,1,445.26,famous_female13.jpg
7,1,7,22,2,2,1,381.26,famous_female06.jpg
7,1,7,23,2,2,1,413.23,famous_female16.jpg
7,1,7,24,1,1,1,493.24,famous_male09.jpg
7,1,7,25,1,2,0,477.21,famous_male18.jpg
7,1,7,26,1,1,1,437.2,famous_male17.jpg
7,2,7,27,2,2,1,525.19,unknown_female15.jpg
7,2,7,28,1,1,1,557.17,unknown_male14.jpg
7,2,7,29,2,2,1,629.22,unknown_female08.jpg
7,1,7,30,1,1,1,549.15,famous_male16.jpg
7,2,7,31,1,1,1,501.15,unknown_male02.jpg
7,2,7,32,2,2,1,525.13,unknown_female14.jpg
7,2,7,33,2,2,1,685.1,unknown_female16.jpg
7,1,7,34,1,1,1,485.12,famous_male11.jpg
7,2,7,35,2,2,1,541.06,unknown_female11.jpg
7,2,7,36,1,1,1,477.08,unknown_male08.jpg
7,2,7,37,1,1,1,477.05,unknown_male10.jpg
7,2,7,38,2,2,1,469.16,unknown_female09.jpg
7,1,7,39,2,2,1,601.5,famous_female03.jpg
7,1,7,40,1,1,1,457.52,famous_male07.jpg
7,1,8,1,1,1,1,537.4,famous_male17.jpg
7,2,8,2,2,2,1,465.41,unknown_female17.jpg
7,1,8,3,1,1,1,513.38,famous_male12.jpg
7,1,8,4,2,2,1,457.37,famous_female01.jpg
7,2,8,5,1,1,1,593.35,unknown_male12.jpg
7,2,8,6,2,2,1,521.48,unknown_female14.jpg
7,1,8,7,2,2,1,457.34,famous_female06.jpg
7,2,8,8,1,1,1,473.32,unknown_male10.jpg
7,1,8,9,1,1,1,529.31,famous_male07.jpg
7,1,8,10,1,1,1,433.28,famous_male16.jpg
7,2,8,11,2,2,1,585.27,unknown_female11.jpg
7,1,8,12,2,2,1,417.28,famous_female09.jpg
7,1,8,13,1,1,1,473.22,famous_male01.jpg
7,1,8,14,2,2,1,513.24,famous_female07.jpg
7,2,8,15,1,1,1,433.2,unknown_male07.jpg
7,1,8,16,1,1,1,409.19,famous_male11.jpg
7,2,8,17,2,2,1,481.15,unknown_female10.jpg
7,1,8,18,2,2,1,545.19,famous_female11.jpg
7,2,8,19,1,1,1,481.15,unknown_male14.jpg
7,1,8,20,2,2,1,473.16,famous_female13.jpg
7,2,8,21,2,2,1,425.14,unknown_female19.jpg
7,1,8,22,1,1,1,441.2,famous_male18.jpg
7,2,8,23,2,2,1,505.1,unknown_female09.jpg
7,1,8,24,2,2,1,505.09,famous_female16.jpg
7,2,8,25,2,2,1,425.09,unknown_female08.jpg
7,2,8,26,2,2,1,385.07,unknown_female16.jpg
7,1,8,27,2,2,1,457.05,famous_female05.jpg
7,1,8,28,2,2,1,553.12,famous_female19.jpg
7,2,8,29,1,1,1,529.04,unknown_male08.jpg
7,1,8,30,1,1,1,377.04,famous_male09.jpg
7,2,8,31,2,2,1,424.99,unknown_female12.jpg
7,2,8,32,1,1,1,496.99,unknown_male13.jpg
7,1,8,33,1,1,1,680.98,famous_male08.jpg
7,2,8,34,1,1,1,488.95,unknown_male01.jpg
7,2,8,35,1,1,1,472.97,unknown_male15.jpg
7,2,8,36,2,2,1,392.94,unknown_female15.jpg
7,2,8,37,1,1,1,408.92,unknown_male06.jpg
7,1,8,38,2,2,1,488.91,famous_female03.jpg
7,2,8,39,1,1,1,480.9,unknown_male02.jpg
7,1,8,40,1,1,1,480.88,famous_male06.jpg
8,1,1,1,2,2,1,618.78,famous_female02.jpg
8,1,1,2,1,1,1,554.93,famous_male17.jpg
8,2,1,3,1,1,1,698.71,unknown_male01.jpg
8,2,1,4,1,1,1,778.73,unknown_male16.jpg
8,2,1,5,1,1,1,786.68,unknown_male02.jpg
8,2,1,6,2,2,1,738.66,unknown_female06.jpg
8,1,1,7,2,2,1,754.64,famous_female07.jpg
8,1,1,8,1,1,1,770.64,famous_male08.jpg
8,2,1,9,2,2,1,682.64,unknown_female03.jpg
8,2,1,10,1,1,1,730.62,unknown_male10.jpg
8,1,1,11,1,1,1,738.61,famous_male19.jpg
8,2,1,12,1,1,1,674.59,unknown_male17.jpg
8,2,1,13,2,2,1,778.57,unknown_female10.jpg
8,1,1,14,1,1,1,521.44,famous_male05.jpg
8,2,1,15,1,1,1,458.59,unknown_male04.jpg
8,2,1,16,1,1,1,426.61,unknown_male06.jpg
8,1,1,17,2,2,1,474.11,famous_female14.jpg
8,1,1,18,2,2,1,482.51,famous_female18.jpg
8,1,1,19,2,2,1,498.09,famous_female11.jpg
8,1,1,20,2,2,1,490.48,famous_female13.jpg
8,2,1,21,1,1,1,474.46,unknown_male18.jpg
8,1,1,22,1,1,1,434.42,famous_male14.jpg
8,1,1,23,2,2,1,457.55,famous_female06.jpg
8,1,1,24,1,1,1,465.52,famous_male20.jpg
8,2,1,25,2,2,1,426.41,unknown_female18.jpg
8,1,1,26,2,2,1,434.4,famous_female10.jpg
8,1,1,27,2,2,1,450.36,famous_female05.jpg
8,2,1,28,2,2,1,441.97,unknown_female07.jpg
8,1,1,29,1,1,1,394.36,famous_male02.jpg
8,1,1,30,1,1,1,362.34,famous_male06.jpg
8,1,1,31,2,2,1,426.34,famous_female17.jpg
8,2,1,32,2,2,1,402.3,unknown_female17.jpg
8,2,1,33,1,1,1,466.31,unknown_male14.jpg
8,2,1,34,2,2,1,449,unknown_female08.jpg
8,2,1,35,1,1,1,570.28,unknown_male07.jpg
8,1,1,36,1,1,1,616.95,famous_male10.jpg
8,2,1,37,2,2,1,608.97,unknown_female12.jpg
8,2,1,38,2,2,1,634.24,unknown_female19.jpg
8,2,1,39,2,2,1,664.92,unknown_female05.jpg
8,1,1,40,1,1,1,450.21,famous_male01.jpg
8,2,2,1,2,2,1,1060.69,unknown_female08.jpg
8,2,2,2,1,1,1,516.69,unknown_male02.jpg
8,2,2,3,2,2,1,452.67,unknown_female07.jpg
8,1,2,4,2,2,1,420.63,famous_female14.jpg
8,1,2,5,1,1,1,396.66,famous_male10.jpg
8,1,2,6,1,1,1,380.63,famous_male14.jpg
8,1,2,7,2,2,1,356.62,famous_female02.jpg
8,1,2,8,1,1,1,332.62,famous_male19.jpg
8,2,2,9,1,1,1,404.59,unknown_male16.jpg
8,1,2,10,1,1,1,425.78,famous_male20.jpg
8,1,2,11,1,1,1,361.76,famous_male17.jpg
8,2,2,12,1,1,1,305.74,unknown_male10.jpg
8,2,2,13,2,2,1,361.74,unknown_female03.jpg
8,2,2,14,1,1,1,321.7,unknown_male18.jpg
8,1,2,15,2,2,1,369.72,famous_female13.jpg
8,2,2,16,1,1,1,409.7,unknown_male17.jpg
8,1,2,17,2,2,1,425.69,famous_female18.jpg
8,1,2,18,2,2,1,457.66,famous_female17.jpg
8,1,2,19,2,2,1,417.64,famous_female11.jpg
8,1,2,20,2,2,1,329.64,famous_female05.jpg
8,1,2,21,2,2,1,329.63,famous_female06.jpg
8,1,2,22,1,1,1,553.61,famous_male01.jpg
8,2,2,23,2,2,1,577.6,unknown_female06.jpg
8,1,2,24,1,1,1,577.57,famous_male08.jpg
8,2,2,25,2,2,1,529.57,unknown_female17.jpg
8,2,2,26,2,2,1,561.56,unknown_female12.jpg
8,2,2,27,2,2,1,577.56,unknown_female10.jpg
8,1,2,28,1,1,1,569.6,famous_male02.jpg
8,1,2,29,2,2,1,497.53,famous_female07.jpg
8,2,2,30,1,1,1,409.52,unknown_male04.jpg
8,2,2,31,1,1,1,385.49,unknown_male14.jpg
8,2,2,32,2,2,1,425.46,unknown_female05.jpg
8,2,2,33,2,2,1,473.46,unknown_female18.jpg
8,2,2,34,1,1,1,505.45,unknown_male07.jpg
8,1,2,35,1,1,1,617.44,famous_male06.jpg
8,2,2,36,1,1,1,417.37,unknown_male06.jpg
8,1,2,37,2,2,1,473.48,famous_female10.jpg
8,2,2,38,1,1,1,441.38,unknown_male01.jpg
8,2,2,39,2,2,1,321.39,unknown_female19.jpg
8,1,2,40,1,1,1,337.37,famous_male05.jpg
8,1,3,1,1,1,1,512.87,famous_male14.jpg
8,1,3,2,2,2,1,400.73,famous_female05.jpg
8,1,3,3,2,2,1,376.83,famous_female18.jpg
8,1,3,4,1,1,1,376.81,famous_male02.jpg
8,1,3,5,2,2,1,312.81,famous_female13.jpg
8,2,3,6,1,1,1,392.83,unknown_male17.jpg
8,2,3,7,2,2,1,400.67,unknown_female12.jpg
8,2,3,8,2,2,1,432.7,unknown_female07.jpg
8,2,3,9,2,2,1,416.78,unknown_female05.jpg
8,1,3,10,2,2,1,448.73,famous_female06.jpg
8,1,3,11,2,2,1,272.71,famous_female14.jpg
8,1,3,12,1,1,1,376.7,famous_male20.jpg
8,1,3,13,1,1,1,400.63,famous_male08.jpg
8,2,3,14,2,1,0,320.67,unknown_female03.jpg
8,2,3,15,1,1,1,416.66,unknown_male01.jpg
8,2,3,16,1,1,1,520.65,unknown_male14.jpg
8,2,3,17,2,2,1,400.63,unknown_female19.jpg
8,2,3,18,1,1,1,464.62,unknown_male02.jpg
8,2,3,19,1,1,1,352.57,unknown_male16.jpg
8,1,3,20,2,2,1,448.6,famous_female02.jpg
8,2,3,21,1,1,1,488.58,unknown_male04.jpg
8,1,3,22,2,2,1,328.57,famous_female11.jpg
8,2,3,23,2,2,1,640.53,unknown_female08.jpg
8,1,3,24,2,2,1,512.54,famous_female17.jpg
8,2,3,25,2,2,1,400.52,unknown_female06.jpg
8,1,3,26,1,1,1,520.51,famous_male06.jpg
8,2,3,27,1,1,1,496.54,unknown_male07.jpg
8,2,3,28,1,1,1,416.49,unknown_male18.jpg
8,1,3,29,2,2,1,408.46,famous_female07.jpg
8,2,3,30,2,2,1,400.47,unknown_female18.jpg
8,1,3,31,2,2,1,408.5,famous_female10.jpg
8,1,3,32,1,1,1,472.44,famous_male17.jpg
8,1,3,33,1,1,1,568.42,famous_male19.jpg
8,2,3,34,1,1,1,464.41,unknown_male10.jpg
8,2,3,35,1,1,1,472.39,unknown_male06.jpg
8,2,3,36,2,2,1,432.38,unknown_female17.jpg
8,2,3,37,2,2,1,384.34,unknown_female10.jpg
8,1,3,38,1,1,1,488.35,famous_male05.jpg
8,1,3,39,1,1,1,552.34,famous_male10.jpg
8,1,3,40,1,1,1,368.33,famous_male01.jpg
8,1,4,1,1,1,1,467.84,famous_male08.jpg
8,2,4,2,1,1,1,363.81,unknown_male18.jpg
8,2,4,3,1,1,1,379.83,unknown_male04.jpg
8,1,4,4,1,1,1,355.8,famous_male01.jpg
8,2,4,5,1,1,1,331.8,unknown_male14.jpg
8,1,4,6,2,2,1,355.79,famous_female14.jpg
8,1,4,7,2,2,1,355.77,famous_female13.jpg
8,2,4,8,2,2,1,371.75,unknown_female03.jpg
8,1,4,9,2,2,1,435.75,famous_female05.jpg
8,1,4,10,2,2,1,467.73,famous_female11.jpg
8,2,4,11,1,1,1,419.81,unknown_male17.jpg
8,1,4,12,2,2,1,363.7,famous_female17.jpg
