SID,Familiarity,Trial,Repetition,ImgCat,Loc,Resp,Corr,RT,ImgName
1,2,1,1,2,4,4,1,1127.69,unknown_female21.jpg
1,2,2,2,1,4,4,1,867.79,unknown_male18.jpg
1,2,3,1,1,1,1,1,879.91,unknown_male21.jpg
1,2,4,1,1,1,1,1,540,unknown_male20.jpg
1,2,5,2,1,4,4,1,840.05,unknown_male06.jpg
1,2,6,2,2,4,4,1,644.18,unknown_female24.jpg
1,2,7,1,2,2,2,1,752.27,unknown_female14.jpg
1,2,8,1,1,1,1,1,860.36,unknown_male17.jpg
1,2,9,1,1,4,4,1,1056.43,unknown_male14.jpg
1,2,10,2,2,1,1,1,900.49,unknown_female17.jpg
1,2,11,2,1,3,3,1,784.5,unknown_male23.jpg
1,2,12,1,2,2,2,1,628.69,unknown_female04.jpg
1,2,13,1,1,3,3,1,528.79,unknown_male16.jpg
1,2,14,1,1,2,2,1,628.87,unknown_male09.jpg
1,2,15,2,1,4,4,1,552.95,unknown_male05.jpg
1,2,16,2,2,4,4,1,452.98,unknown_female08.jpg
1,2,17,1,1,2,2,1,873.13,unknown_male01.jpg
1,2,18,2,1,1,1,1,1677.18,unknown_male24.jpg
1,2,19,2,2,2,2,1,857.3,unknown_female10.jpg
1,2,20,1,2,1,1,1,549.36,unknown_female23.jpg
1,2,21,1,2,4,4,1,673.49,unknown_female19.jpg
1,2,22,1,1,3,3,1,437.57,unknown_male13.jpg
1,2,23,1,2,2,2,1,521.65,unknown_female12.jpg
1,2,24,1,2,4,4,1,525.74,unknown_female18.jpg
1,2,25,2,2,3,3,1,809.79,unknown_female13.jpg
1,2,26,2,2,3,3,1,493.92,unknown_female15.jpg
1,2,27,2,1,2,2,1,834.01,unknown_male08.jpg
1,2,28,1,2,3,3,1,1086.1,unknown_female16.jpg
1,2,29,2,2,1,1,1,818.13,unknown_female20.jpg
1,2,30,2,1,2,2,1,918.25,unknown_male02.jpg
1,2,31,2,2,3,3,1,562.35,unknown_female09.jpg
1,2,32,2,2,4,4,1,686.38,unknown_female02.jpg
1,2,33,1,1,3,3,1,506.53,unknown_male04.jpg
1,2,34,1,1,4,4,1,630.62,unknown_male15.jpg
1,2,35,1,2,3,3,1,418.71,unknown_female22.jpg
1,2,36,1,1,2,2,1,534.78,unknown_male12.jpg
1,2,37,2,2,2,2,1,554.88,unknown_female03.jpg
1,2,38,1,2,1,1,1,702.97,unknown_female05.jpg
1,2,39,2,1,1,1,1,411.05,unknown_male03.jpg
1,2,40,2,1,3,3,1,599.11,unknown_male10.jpg
1,2,41,2,1,2,2,1,1683.24,unknown_male07.jpg
1,2,42,1,2,3,3,1,999.32,unknown_female06.jpg
1,2,43,2,1,3,3,1,507.41,unknown_male19.jpg
1,2,44,2,1,1,1,1,503.49,unknown_male11.jpg
1,2,45,1,2,1,1,1,363.57,unknown_female01.jpg
1,2,46,2,2,1,1,1,671.67,unknown_female11.jpg
1,2,47,1,1,4,4,1,891.75,unknown_male22.jpg
1,2,48,2,2,2,2,1,687.84,unknown_female07.jpg
2,1,1,2,1,1,1,1,1053.59,famous_male21.jpg
2,1,2,1,1,1,1,1,57.73,famous_male22.jpg
2,1,3,1,2,3,3,1,717.83,famous_female05.jpg
2,1,4,2,2,3,3,1,745.88,famous_female23.jpg
2,1,5,1,1,4,4,1,573.93,famous_male19.jpg
2,1,6,1,2,2,2,1,770.08,famous_female18.jpg
2,1,7,1,2,4,4,1,998.17,famous_female08.jpg
2,1,8,1,1,3,3,1,946.26,famous_male07.jpg
2,1,9,2,1,3,3,1,830.32,famous_male08.jpg
2,1,10,1,2,1,1,1,714.43,famous_female24.jpg
2,1,11,2,1,4,4,1,886.52,famous_male20.jpg
2,1,12,2,2,2,2,1,714.55,famous_female15.jpg
2,1,13,2,2,4,4,1,1022.69,famous_female12.jpg
2,1,14,2,2,4,4,1,1026.79,famous_female07.jpg
2,1,15,1,2,2,2,1,718.87,famous_female14.jpg
2,1,16,2,2,1,1,1,706.97,famous_female19.jpg
2,1,17,2,2,4,4,1,703.05,famous_female17.jpg
2,1,18,2,2,2,2,1,931.13,famous_female04.jpg
2,1,19,1,1,4,4,1,895.22,famous_male04.jpg
2,1,20,1,2,2,2,1,987.31,famous_female22.jpg
2,1,21,2,1,1,1,1,615.4,famous_male02.jpg
2,1,22,1,1,2,2,1,715.49,famous_male23.jpg
2,1,23,1,1,3,3,1,775.54,famous_male16.jpg
2,1,24,1,2,4,4,1,747.67,famous_female03.jpg
2,1,25,2,2,2,2,1,1231.77,famous_female01.jpg
2,1,26,1,2,1,1,1,707.86,famous_female13.jpg
2,1,27,1,1,2,2,1,703.91,famous_male05.jpg
2,1,28,2,1,2,2,1,932,famous_male01.jpg
2,1,29,2,1,2,2,1,880.08,famous_male17.jpg
2,1,30,2,1,3,3,1,548.15,famous_male13.jpg
2,1,31,2,2,3,3,1,1256.3,famous_female16.jpg
2,1,32,2,2,1,1,1,1244.38,famous_female02.jpg
2,1,33,2,1,2,2,1,1024.46,famous_male10.jpg
2,1,34,2,1,4,4,1,668.53,famous_male06.jpg
2,1,35,2,1,4,4,1,1016.64,famous_male14.jpg
2,1,36,1,2,3,3,1,1092.7,famous_female11.jpg
2,1,37,2,1,1,1,1,528.76,famous_male12.jpg
2,1,38,1,2,1,1,1,932.88,famous_female21.jpg
2,1,39,1,2,4,4,1,856.97,famous_female06.jpg
2,1,40,1,1,4,4,1,725.06,famous_male18.jpg
2,1,41,2,1,3,3,1,793.14,famous_male03.jpg
2,1,42,1,1,2,2,1,541.24,famous_male11.jpg
2,1,43,1,1,1,1,1,633.26,famous_male15.jpg
2,1,44,1,1,3,3,1,1253.38,famous_male24.jpg
2,1,45,1,2,3,3,1,801.48,famous_female20.jpg
2,1,46,2,2,3,3,1,1109.58,famous_female09.jpg
2,1,47,2,2,1,1,1,817.69,famous_female10.jpg
2,1,48,1,1,1,1,1,1109.76,famous_male09.jpg
3,2,1,2,1,2,2,1,633.8,unknown_male16.jpg
3,2,2,1,2,2,2,1,989.92,unknown_female19.jpg
3,2,3,2,2,3,3,1,2290.02,unknown_female21.jpg
3,2,4,1,2,3,3,1,982.04,unknown_female13.jpg
3,2,5,1,1,1,1,1,2826.2,unknown_male18.jpg
3,2,6,1,1,3,3,1,630.28,unknown_male11.jpg
3,2,7,1,2,1,1,1,522.37,unknown_female15.jpg
3,2,8,2,1,2,2,1,550.42,unknown_male02.jpg
3,2,9,2,2,3,3,1,618.54,unknown_female10.jpg
3,2,10,1,1,2,2,1,654.63,unknown_male24.jpg
3,2,11,1,2,4,4,1,394.71,unknown_female16.jpg
3,2,12,1,1,2,2,1,518.74,unknown_male21.jpg
3,2,13,2,1,1,1,1,562.9,unknown_male03.jpg
3,2,14,2,1,1,1,1,542.98,unknown_male15.jpg
3,2,15,2,2,1,1,1,619.04,unknown_female01.jpg
3,2,16,2,2,2,2,1,575.12,unknown_female08.jpg
3,2,17,2,2,3,3,1,651.17,unknown_female06.jpg
3,2,18,2,2,4,4,1,711.28,unknown_female02.jpg
3,2,19,1,1,4,4,1,467.44,unknown_male17.jpg
3,2,20,1,2,1,1,1,743.51,unknown_female05.jpg
3,2,21,1,2,4,4,1,539.59,unknown_female07.jpg
3,2,22,1,1,1,1,1,511.68,unknown_male19.jpg
3,2,23,2,1,3,3,1,683.76,unknown_male22.jpg
3,2,24,2,1,1,1,1,575.82,unknown_male13.jpg
3,2,25,1,2,1,1,1,475.95,unknown_female20.jpg
3,2,26,1,2,3,3,1,624.03,unknown_female11.jpg
3,2,27,2,1,4,4,1,612.12,unknown_male01.jpg
3,2,28,2,2,1,1,1,720.21,unknown_female22.jpg
3,2,29,2,1,4,4,1,892.27,unknown_male23.jpg
3,2,30,1,1,3,3,1,544.34,unknown_male14.jpg
3,2,31,2,1,4,4,1,540.48,unknown_male08.jpg
3,2,32,1,2,3,3,1,504.55,unknown_female03.jpg
3,2,33,2,2,4,4,1,508.64,unknown_female14.jpg
3,2,34,1,1,1,1,1,648.69,unknown_male04.jpg
3,2,35,2,1,3,3,1,660.81,unknown_male20.jpg
3,2,36,1,2,2,2,1,528.9,unknown_female09.jpg
3,2,37,2,2,2,2,1,436.99,unknown_female18.jpg
3,2,38,1,1,4,4,1,681.08,unknown_male06.jpg
3,2,39,1,1,4,4,1,645.16,unknown_male09.jpg
3,2,40,1,1,2,2,1,665.26,unknown_male12.jpg
3,2,41,2,1,3,3,1,613.35,unknown_male05.jpg
3,2,42,1,2,4,4,1,1145.42,unknown_female12.jpg
3,2,43,2,2,4,4,1,997.48,unknown_female17.jpg
3,2,44,2,2,2,2,1,689.61,unknown_female04.jpg
3,2,45,1,1,3,3,1,517.57,unknown_male07.jpg
3,2,46,2,2,1,1,1,649.78,unknown_female24.jpg
3,2,47,1,2,2,2,1,509.86,unknown_female23.jpg
3,2,48,2,1,2,2,1,521.95,unknown_male10.jpg
4,1,1,1,1,4,4,1,784.17,famous_male07.jpg
4,1,2,2,1,3,3,1,1540.3,famous_male12.jpg
4,1,3,2,1,4,4,1,1880.42,famous_male04.jpg
4,1,4,2,1,1,1,1,1444.46,famous_male03.jpg
4,1,5,1,1,4,4,1,1432.58,famous_male11.jpg
4,1,6,1,2,2,2,1,1500.67,famous_female04.jpg
4,1,7,1,1,3,3,1,1616.75,famous_male17.jpg
4,1,8,2,2,1,1,1,1676.84,famous_female10.jpg
4,1,9,2,1,3,3,1,1952.93,famous_male10.jpg
4,1,10,1,2,1,1,1,1604.96,famous_female20.jpg
4,1,11,1,2,2,2,1,1193.1,famous_female09.jpg
4,1,12,1,2,4,4,1,1205.17,famous_female18.jpg
4,1,13,1,2,1,1,1,1433.27,famous_female07.jpg
4,1,14,2,2,4,4,1,2461.33,famous_female01.jpg
4,1,15,2,2,4,4,1,2177.45,famous_female19.jpg
4,1,16,1,1,4,4,1,1997.54,famous_male20.jpg
4,1,17,2,1,4,4,1,2041.62,famous_male14.jpg
4,1,18,1,2,2,2,1,1973.72,famous_female14.jpg
4,1,19,2,2,4,4,1,1809.83,famous_female23.jpg
4,1,20,1,2,4,4,1,1749.82,famous_female05.jpg
4,1,21,2,2,3,3,1,1545.98,famous_female12.jpg
4,1,22,2,2,2,2,1,1270.02,famous_female06.jpg
4,1,23,2,2,2,2,1,2586.13,famous_female13.jpg
4,1,24,2,1,2,2,1,902.23,famous_male02.jpg
4,1,25,1,2,3,3,1,1218.26,famous_female02.jpg
4,1,26,1,1,1,1,1,1190.41,famous_male13.jpg
4,1,27,2,1,1,1,1,1602.5,famous_male21.jpg
4,1,28,2,1,2,2,1,1878.59,famous_male23.jpg
4,1,29,2,1,1,1,1,850.68,famous_male08.jpg
4,1,30,2,1,4,4,1,1150.76,famous_male22.jpg
4,1,31,1,1,3,3,1,1482.85,famous_male24.jpg
4,1,32,1,1,1,1,1,1014.95,famous_male05.jpg
4,1,33,1,2,3,3,1,1603.04,famous_female21.jpg
4,1,34,2,1,3,3,1,1111.05,famous_male18.jpg
4,1,35,1,2,3,3,1,1459.2,famous_female24.jpg
4,1,36,1,1,1,1,1,1039.29,famous_male16.jpg
4,1,37,1,1,3,3,1,1067.37,famous_male09.jpg
4,1,38,1,2,1,1,1,1151.48,famous_female22.jpg
4,1,39,1,1,2,2,1,1595.51,famous_male06.jpg
4,1,40,2,2,3,3,1,1023.6,famous_female17.jpg
4,1,41,1,1,2,2,1,1283.75,famous_male01.jpg
4,1,42,2,2,1,1,1,2383.84,famous_female11.jpg
4,1,43,2,1,2,2,1,859.88,famous_male15.jpg
4,1,44,2,2,3,3,1,1279.98,famous_female15.jpg
4,1,45,2,2,1,1,1,1364.07,famous_female08.jpg
4,1,46,2,2,2,2,1,1056.17,famous_female03.jpg
4,1,47,1,1,2,2,1,1060.25,famous_male19.jpg
4,1,48,1,2,4,4,1,992.33,famous_female16.jpg
5,2,1,1,2,4,4,1,1427.05,unknown_female22.jpg
5,2,2,2,2,4,4,1,727.2,unknown_female16.jpg
5,2,3,1,1,4,4,1,1123.29,unknown_male05.jpg
5,2,4,2,2,1,1,1,479.34,unknown_female24.jpg
5,2,5,2,1,4,4,1,1315.48,unknown_male06.jpg
5,2,6,1,1,4,4,1,895.55,unknown_male02.jpg
5,2,7,1,2,3,3,1,955.64,unknown_female05.jpg
5,2,8,2,2,3,3,1,759.72,unknown_female07.jpg
5,2,9,1,2,3,3,1,651.81,unknown_female23.jpg
5,2,10,1,2,1,1,1,623.92,unknown_female03.jpg
5,2,11,1,2,4,4,1,1139.99,unknown_female19.jpg
5,2,12,2,2,1,1,1,744.07,unknown_female10.jpg
5,2,13,1,2,2,2,1,804.16,unknown_female13.jpg
5,2,14,2,1,2,2,1,696.25,unknown_male14.jpg
5,2,15,1,1,4,4,1,1084.3,unknown_male17.jpg
5,2,16,2,2,4,4,1,920.42,unknown_female17.jpg
5,2,17,1,1,2,2,1,556.53,unknown_male03.jpg
5,2,18,1,2,1,1,1,648.61,unknown_female02.jpg
5,2,19,1,2,4,4,1,868.69,unknown_female21.jpg
5,2,20,2,1,2,2,1,848.77,unknown_male10.jpg
5,2,21,2,2,1,1,1,572.86,unknown_female11.jpg
5,2,22,1,1,1,1,1,688.95,unknown_male20.jpg
5,2,23,1,2,2,2,1,661.04,unknown_female08.jpg
5,2,24,2,2,2,2,1,537.09,unknown_female12.jpg
5,2,25,1,1,2,2,1,437.21,unknown_male19.jpg
5,2,26,2,2,3,3,1,761.29,unknown_female04.jpg
5,2,27,2,1,4,4,1,1045.39,unknown_male22.jpg
5,2,28,2,2,2,2,1,641.47,unknown_female06.jpg
5,2,29,1,2,3,3,1,949.56,unknown_female20.jpg
5,2,30,1,2,2,2,1,849.66,unknown_female01.jpg
5,2,31,2,2,2,2,1,493.74,unknown_female15.jpg
5,2,32,1,1,3,3,1,953.85,unknown_male15.jpg
5,2,33,1,1,1,1,1,469.91,unknown_male23.jpg
5,2,34,2,1,3,3,1,1001.94,unknown_male08.jpg
5,2,35,1,2,1,1,1,574.08,unknown_female09.jpg
5,2,36,2,1,1,1,1,698.17,unknown_male12.jpg
5,2,37,2,1,1,1,1,542.2,unknown_male01.jpg
5,2,38,2,1,2,2,1,506.35,unknown_male18.jpg
5,2,39,1,1,2,2,1,430.43,unknown_male11.jpg
5,2,40,1,1,3,2,0,458.52,unknown_male09.jpg
5,2,41,2,2,3,3,1,1030.61,unknown_female14.jpg
5,2,42,2,1,4,4,1,786.65,unknown_male24.jpg
5,2,43,1,1,1,1,1,446.79,unknown_male21.jpg
5,2,44,2,1,1,1,1,826.87,unknown_male04.jpg
5,2,45,2,2,4,4,1,950.85,unknown_female18.jpg
5,2,46,2,1,3,3,1,851.07,unknown_male16.jpg
5,2,47,1,1,3,3,1,855.13,unknown_male07.jpg
5,2,48,2,1,3,3,1,851.22,unknown_male13.jpg
6,1,1,1,1,3,3,1,1280.6,famous_male23.jpg
6,1,2,1,2,4,4,1,996.72,famous_female24.jpg
6,1,3,2,2,2,2,1,1232.8,famous_female19.jpg
6,1,4,2,1,2,2,1,876.86,famous_male04.jpg
6,1,5,1,1,3,3,1,760.98,famous_male01.jpg
6,1,6,2,1,3,3,1,661.06,famous_male22.jpg
6,1,7,1,1,4,4,1,857.15,famous_male15.jpg
6,1,8,2,1,1,1,1,773.23,famous_male05.jpg
6,1,9,1,1,2,2,1,713.28,famous_male11.jpg
6,1,10,1,2,1,1,1,733.4,famous_female04.jpg
6,1,11,2,2,1,1,1,689.5,famous_female07.jpg
6,1,12,1,1,2,2,1,597.54,famous_male12.jpg
6,1,13,1,2,3,3,1,713.66,famous_female09.jpg
6,1,14,1,2,4,4,1,701.75,famous_female11.jpg
6,1,15,1,2,3,3,1,609.86,famous_female10.jpg
6,1,16,2,2,3,3,1,741.93,famous_female14.jpg
6,1,17,2,2,1,1,1,954.06,famous_female17.jpg
6,1,18,2,1,3,3,1,670.1,famous_male17.jpg
6,1,19,2,2,4,4,1,674.13,famous_female20.jpg
6,1,20,1,1,2,2,1,598.29,famous_male06.jpg
6,1,21,2,2,1,1,1,634.37,famous_female05.jpg
6,1,22,2,2,2,2,1,846.45,famous_female06.jpg
6,1,23,1,2,2,2,1,474.55,famous_female01.jpg
6,1,24,2,2,3,3,1,846.62,famous_female16.jpg
6,1,25,2,1,1,1,1,762.73,famous_male21.jpg
6,1,26,1,2,2,2,1,502.8,famous_female21.jpg
6,1,27,1,2,1,1,1,530.9,famous_female23.jpg
6,1,28,2,1,4,4,1,750.98,famous_male20.jpg
6,1,29,2,1,2,2,1,547.08,famous_male09.jpg
6,1,30,2,1,4,4,1,615.16,famous_male10.jpg
6,1,31,1,1,3,3,1,619.24,famous_male07.jpg
6,1,32,2,2,2,2,1,431.3,famous_female02.jpg
6,1,33,2,2,3,3,1,459.42,famous_female18.jpg
6,1,34,2,2,4,4,1,615.52,famous_female03.jpg
6,1,35,1,1,1,1,1,643.59,famous_male08.jpg
6,1,36,2,2,4,4,1,767.61,famous_female08.jpg
6,1,37,1,2,4,4,1,627.74,famous_female12.jpg
6,1,38,2,1,1,1,1,903.79,famous_male18.jpg
6,1,39,2,1,4,4,1,747.94,famous_male19.jpg
6,1,40,1,2,1,1,1,448.03,famous_female15.jpg
6,1,41,1,1,4,4,1,452.12,famous_male14.jpg
6,1,42,2,1,2,2,1,592.2,famous_male16.jpg
6,1,43,1,1,1,1,1,452.28,famous_male02.jpg
6,1,44,2,1,3,3,1,816.38,famous_male24.jpg
6,1,45,1,2,2,2,1,708.43,famous_female13.jpg
6,1,46,1,1,4,4,1,536.54,famous_male03.jpg
6,1,47,1,2,3,3,1,428.64,famous_female22.jpg
6,1,48,1,1,1,1,1,688.73,famous_male13.jpg
7,2,1,2,2,3,3,1,733.26,unknown_female06.jpg
7,2,2,1,2,2,2,1,585.41,unknown_female08.jpg
7,2,3,1,2,1,1,1,453.51,unknown_female04.jpg
7,2,4,1,1,4,4,1,417.59,unknown_male19.jpg
7,2,5,2,1,3,3,1,509.64,unknown_male11.jpg
7,2,6,1,1,2,2,1,449.77,unknown_male15.jpg
7,2,7,2,1,4,4,1,397.86,unknown_male10.jpg
7,2,8,1,2,1,1,1,361.96,unknown_female22.jpg
7,2,9,2,1,1,1,1,430.03,unknown_male20.jpg
7,2,10,2,1,4,4,1,386.11,unknown_male13.jpg
7,2,11,1,2,4,4,1,478.2,unknown_female03.jpg
7,2,12,1,1,3,3,1,450.31,unknown_male07.jpg
7,2,13,2,2,1,1,1,310.4,unknown_female13.jpg
7,2,14,1,1,4,4,1,282.48,unknown_male02.jpg
7,2,15,1,2,4,4,1,846.56,unknown_female01.jpg
7,2,16,1,1,1,1,1,402.65,unknown_male09.jpg
7,2,17,2,2,2,2,1,526.73,unknown_female02.jpg
7,2,18,1,2,3,3,1,458.82,unknown_female20.jpg
7,2,19,2,2,3,3,1,430.91,unknown_female24.jpg
7,2,20,2,2,2,2,1,323.01,unknown_female07.jpg
7,2,21,2,1,1,1,1,359.08,unknown_male24.jpg
7,2,22,1,2,3,3,1,347.18,unknown_female11.jpg
7,2,23,1,1,3,3,1,439.25,unknown_male04.jpg
7,2,24,2,1,1,1,1,427.27,unknown_male17.jpg
7,2,25,1,2,4,4,1,367.4,unknown_female14.jpg
7,2,26,2,2,1,1,1,339.52,unknown_female15.jpg
7,2,27,2,1,3,3,1,271.6,unknown_male03.jpg
7,2,28,2,2,1,1,1,547.7,unknown_female23.jpg
7,2,29,1,1,4,4,1,415.74,unknown_male06.jpg
7,2,30,2,2,4,4,1,451.87,unknown_female10.jpg
7,2,31,1,2,3,3,1,519.95,unknown_female12.jpg
7,2,32,1,2,2,2,1,628.07,unknown_female17.jpg
7,2,33,2,2,4,4,1,384.09,unknown_female05.jpg
7,2,34,1,2,1,1,1,524.21,unknown_female21.jpg
7,2,35,1,1,3,3,1,416.31,unknown_male23.jpg
7,2,36,2,1,3,3,1,388.39,unknown_male08.jpg
7,2,37,2,1,2,2,1,376.48,unknown_male18.jpg
7,2,38,2,2,2,2,1,452.56,unknown_female16.jpg
7,2,39,2,1,4,4,1,408.67,unknown_male05.jpg
7,2,40,1,1,1,1,1,452.74,unknown_male01.jpg
7,2,41,1,2,2,2,1,376.84,unknown_female18.jpg
7,2,42,2,2,3,3,1,500.89,unknown_female09.jpg
7,2,43,1,1,2,2,1,345,unknown_male14.jpg
7,2,44,2,1,2,2,1,477.09,unknown_male22.jpg
7,2,45,1,1,2,2,1,401.16,unknown_male12.jpg
7,2,46,2,2,4,4,1,405.27,unknown_female19.jpg
7,2,47,1,1,1,1,1,385.31,unknown_male16.jpg
7,2,48,2,1,2,2,1,453.44,unknown_male21.jpg
8,1,1,1,2,4,4,1,841.63,famous_female20.jpg
8,1,2,1,2,4,4,1,989.76,famous_female23.jpg
8,1,3,2,2,4,4,1,1377.87,famous_female03.jpg
8,1,4,2,1,1,1,1,1045.94,famous_male08.jpg
8,1,5,1,2,3,3,1,906.05,famous_female24.jpg
8,1,6,2,1,2,2,1,782.12,famous_male01.jpg
8,1,7,1,2,1,1,1,1554.1,famous_female15.jpg
8,1,8,1,2,2,2,1,894.29,famous_female04.jpg
8,1,9,1,1,2,2,1,850.38,famous_male23.jpg
8,1,10,1,1,1,1,1,894.47,famous_male11.jpg
8,1,11,2,1,2,2,1,1058.62,famous_male09.jpg
8,1,12,2,1,1,1,1,846.64,famous_male19.jpg
8,1,13,2,1,4,4,1,714.66,famous_male24.jpg
8,1,14,2,2,1,1,1,1254.79,famous_female13.jpg
8,1,15,2,1,3,3,1,762.9,famous_male03.jpg
8,1,16,1,2,2,2,1,974.93,famous_female22.jpg
8,1,17,2,1,3,3,1,819.05,famous_male04.jpg
8,1,18,1,1,4,4,1,799.16,famous_male13.jpg
8,1,19,2,2,2,2,1,803.25,famous_female16.jpg
8,1,20,2,2,2,2,1,727.34,famous_female18.jpg
8,1,21,1,2,4,4,1,739.44,famous_female08.jpg
8,1,22,1,2,1,1,1,663.52,famous_female09.jpg
8,1,23,2,2,4,4,1,1555.62,famous_female06.jpg
8,1,24,1,2,1,1,1,759.71,famous_female17.jpg
8,1,25,2,2,3,3,1,1019.78,famous_female12.jpg
8,1,26,1,1,3,3,1,815.85,famous_male06.jpg
8,1,27,2,1,3,3,1,819.94,famous_male15.jpg
8,1,28,1,1,4,4,1,896.04,famous_male17.jpg
8,1,29,1,2,3,3,1,772.09,famous_female05.jpg
8,1,30,1,1,3,3,1,592.23,famous_male07.jpg
8,1,31,2,2,1,1,1,644.3,famous_female02.jpg
8,1,32,2,1,4,4,1,560.39,famous_male10.jpg
8,1,33,1,1,3,3,1,644.47,famous_male20.jpg
8,1,34,1,1,2,2,1,1480.52,famous_male12.jpg
8,1,35,2,2,3,3,1,804.65,famous_female11.jpg
8,1,36,2,2,3,3,1,880.75,famous_female10.jpg
8,1,37,2,1,4,4,1,916.82,famous_male02.jpg
8,1,38,1,1,1,1,1,576.93,famous_male14.jpg
8,1,39,2,1,1,1,1,685.03,famous_male05.jpg
8,1,40,2,2,2,2,1,713.08,famous_female14.jpg
8,1,41,1,2,3,3,1,725.15,famous_female07.jpg
8,1,42,2,2,1,1,1,529.28,famous_female19.jpg
8,1,43,1,1,4,4,1,693.39,famous_male21.jpg
8,1,44,1,1,1,1,1,713.43,famous_male18.jpg
8,1,45,2,1,2,2,1,581.53,famous_male22.jpg
8,1,46,1,1,2,2,1,833.61,famous_male16.jpg
8,1,47,2,2,4,4,1,1005.66,famous_female01.jpg
8,1,48,1,2,2,2,1,889.79,famous_female21.jpg
9,2,1,2,2,2,2,1,1290.04,unknown_female11.jpg
9,2,2,2,1,1,1,1,1126.16,unknown_male08.jpg
9,2,3,1,1,4,4,1,1226.28,unknown_male15.jpg
9,2,4,1,1,3,3,1,998.37,unknown_male13.jpg
9,2,5,1,1,1,1,1,1498.41,unknown_male06.jpg
9,2,6,2,1,3,3,1,1310.56,unknown_male23.jpg
9,2,7,2,2,3,3,1,1762.63,unknown_female14.jpg
9,2,8,1,2,3,3,1,1542.71,unknown_female17.jpg
9,2,9,1,2,4,4,1,2090.76,unknown_female02.jpg
9,2,10,1,2,4,4,1,1574.89,unknown_female22.jpg
9,2,11,2,2,4,4,1,1418.98,unknown_female04.jpg
9,2,12,1,1,3,3,1,1575,unknown_male21.jpg
9,2,13,1,1,1,1,1,2411.18,unknown_male17.jpg
9,2,14,2,2,1,1,1,1991.2,unknown_female09.jpg
9,2,15,2,2,3,3,1,1739.34,unknown_female21.jpg
9,2,16,2,1,2,2,1,2191.42,unknown_male03.jpg
9,2,17,1,2,1,1,1,1155.5,unknown_female13.jpg
9,2,18,2,2,1,1,1,1167.59,unknown_female12.jpg
9,2,19,1,1,4,4,1,1339.68,unknown_male14.jpg
9,2,20,2,1,3,3,1,975.69,unknown_male10.jpg
9,2,21,2,1,3,3,1,987.85,unknown_male20.jpg
9,2,22,1,2,2,2,1,1655.9,unknown_female20.jpg
9,2,23,2,1,1,1,1,1276.02,unknown_male18.jpg
9,2,24,1,1,2,2,1,1704.12,unknown_male09.jpg
9,2,25,1,1,3,3,1,2244.22,unknown_male04.jpg
9,2,26,1,2,2,2,1,1872.3,unknown_female16.jpg
9,2,27,2,1,4,4,1,1612.38,unknown_male07.jpg
9,2,28,2,1,1,1,1,1856.46,unknown_male05.jpg
9,2,29,1,2,1,1,1,1724.55,unknown_female24.jpg
9,2,30,1,2,3,3,1,2048.64,unknown_female03.jpg
9,2,31,2,2,2,2,1,1532.72,unknown_female23.jpg
9,2,32,2,2,1,1,1,1760.77,unknown_female18.jpg
9,2,33,2,2,4,4,1,1252.9,unknown_female08.jpg
9,2,34,2,1,2,2,1,1344.99,unknown_male24.jpg
9,2,35,2,2,4,4,1,725.06,unknown_female06.jpg
9,2,36,1,2,1,1,1,1121.18,unknown_female15.jpg
9,2,37,1,1,2,2,1,1573.22,unknown_male01.jpg
9,2,38,1,1,4,4,1,2313.34,unknown_male16.jpg
9,2,39,1,1,2,2,1,2221.43,unknown_male11.jpg
9,2,40,1,2,4,4,1,2369.52,unknown_female01.jpg
9,2,41,2,1,2,2,1,957.53,unknown_male02.jpg
9,2,42,1,2,2,2,1,1609.71,unknown_female07.jpg
9,2,43,2,2,2,2,1,1853.74,unknown_female05.jpg
9,2,44,2,1,4,4,1,1113.86,unknown_male19.jpg
9,2,45,2,1,4,4,1,861.95,unknown_male22.jpg
9,2,46,2,2,3,3,1,1018.04,unknown_female10.jpg
9,2,47,1,2,3,3,1,1166.15,unknown_female19.jpg
9,2,48,1,1,1,1,1,2250.23,unknown_male12.jpg
10,1,1,1,2,3,3,1,1316.36,famous_female13.jpg
10,1,2,1,1,1,3,0,584.46,famous_male04.jpg
10,1,3,2,2,4,4,1,1412.61,famous_female14.jpg
10,1,4,2,1,1,1,1,1408.68,famous_male07.jpg
10,1,5,2,2,4,4,1,1020.77,famous_female12.jpg
10,1,6,2,1,3,3,1,1384.83,famous_male19.jpg
10,1,7,1,1,1,1,1,1460.94,famous_male24.jpg
10,1,8,1,1,3,3,1,1593.05,famous_male23.jpg
10,1,9,2,1,2,2,1,1357.11,famous_male15.jpg
10,1,10,1,1,1,1,1,1665.21,famous_male12.jpg
10,1,11,1,1,4,4,1,1389.3,famous_male06.jpg
10,1,12,1,2,2,2,1,1497.39,famous_female22.jpg
10,1,13,2,1,4,4,1,1133.44,famous_male09.jpg
10,1,14,2,2,1,1,1,1833.55,famous_female02.jpg
10,1,15,2,2,3,3,1,1533.6,famous_female04.jpg
10,1,16,1,1,2,2,1,1905.73,famous_male21.jpg
10,1,17,1,2,1,1,1,1333.83,famous_female21.jpg
10,1,18,1,2,3,3,1,1425.88,famous_female08.jpg
10,1,19,1,1,4,4,1,1389.99,famous_male13.jpg
10,1,20,1,2,1,1,1,1362.08,famous_female11.jpg
10,1,21,2,2,1,1,1,1310.21,famous_female20.jpg
10,1,22,1,2,2,2,1,1474.25,famous_female19.jpg
10,1,23,2,1,1,1,1,1574.35,famous_male14.jpg
10,1,24,1,2,4,4,1,1322.37,famous_female23.jpg
10,1,25,2,1,4,4,1,1382.51,famous_male03.jpg
10,1,26,2,1,2,2,1,1330.6,famous_male01.jpg
10,1,27,2,1,2,2,1,1558.74,famous_male02.jpg
10,1,28,2,1,4,4,1,1410.39,famous_male10.jpg
10,1,29,2,2,3,3,1,1358.48,famous_female09.jpg
10,1,30,1,1,4,4,1,1274.49,famous_male22.jpg
10,1,31,1,2,1,1,1,1254.67,famous_female10.jpg
10,1,32,1,1,2,2,1,1186.62,famous_male05.jpg
10,1,33,2,2,1,1,1,1558.85,famous_female17.jpg
10,1,34,1,1,3,3,1,1506.92,famous_male18.jpg
10,1,35,2,1,1,1,1,1567,famous_male17.jpg
10,1,36,2,2,2,2,1,1004.82,famous_female01.jpg
10,1,37,1,2,4,4,1,1176.83,famous_female03.jpg
10,1,38,2,2,3,3,1,1284.97,famous_female15.jpg
10,1,39,1,1,3,3,1,1537.02,famous_male08.jpg
10,1,40,2,2,2,2,1,1317.14,famous_female06.jpg
10,1,41,1,2,4,4,1,1289.2,famous_female24.jpg
10,1,42,2,2,4,4,1,1229.32,famous_female07.jpg
10,1,43,1,2,3,3,1,1441.37,famous_female05.jpg
10,1,44,2,2,2,2,1,1141.47,famous_female18.jpg
10,1,45,1,2,2,2,1,1369.57,famous_female16.jpg
10,1,46,1,1,2,2,1,1477.7,famous_male20.jpg
10,1,47,2,1,3,3,1,1257.7,famous_male16.jpg
10,1,48,2,1,3,3,1,1421.84,famous_male11.jpg
11,2,1,1,1,4,4,1,772.49,unknown_male22.jpg
11,2,2,1,2,1,1,1,616.66,unknown_female24.jpg
11,2,3,2,2,1,1,1,564.74,unknown_female03.jpg
11,2,4,2,2,1,1,1,816.83,unknown_female05.jpg
11,2,5,2,1,2,2,1,988.84,unknown_male16.jpg
11,2,6,2,2,4,4,1,1145,unknown_female18.jpg
11,2,7,1,1,1,1,1,693.08,unknown_male06.jpg
11,2,8,1,2,2,2,1,937.17,unknown_female19.jpg
11,2,9,2,2,2,2,1,701.27,unknown_female11.jpg
11,2,10,2,2,3,3,1,889.38,unknown_female23.jpg
11,2,11,1,1,2,2,1,1253.43,unknown_male03.jpg
11,2,12,2,1,3,3,1,761.52,unknown_male04.jpg
11,2,13,2,2,3,3,1,789.61,unknown_female20.jpg
11,2,14,1,2,2,2,1,1217.72,unknown_female08.jpg
11,2,15,2,1,2,2,1,1349.79,unknown_male07.jpg
11,2,16,1,1,3,3,1,609.88,unknown_male21.jpg
11,2,17,1,2,1,1,1,869.97,unknown_female04.jpg
11,2,18,2,1,4,4,1,714,unknown_male05.jpg
11,2,19,2,1,3,3,1,894.11,unknown_male09.jpg
11,2,20,1,2,3,3,1,970.23,unknown_female14.jpg
11,2,21,1,1,1,1,1,902.27,unknown_male15.jpg
11,2,22,2,2,4,4,1,890.33,unknown_female13.jpg
11,2,23,2,1,4,4,1,638.5,unknown_male14.jpg
11,2,24,1,1,3,3,1,786.58,unknown_male17.jpg
11,2,25,1,2,3,3,1,710.67,unknown_female21.jpg
11,2,26,1,2,1,1,1,778.76,unknown_female15.jpg
11,2,27,2,1,3,3,1,726.77,unknown_male24.jpg
11,2,28,1,2,4,4,1,994.94,unknown_female22.jpg
11,2,29,1,2,3,3,1,623.01,unknown_female06.jpg
11,2,30,1,1,4,4,1,915.09,unknown_male02.jpg
11,2,31,2,2,2,2,1,951.19,unknown_female16.jpg
11,2,32,1,1,1,1,1,907.27,unknown_male23.jpg
11,2,33,1,2,2,2,1,1271.36,unknown_female09.jpg
11,2,34,2,1,1,1,1,763.38,unknown_male01.jpg
11,2,35,2,1,2,2,1,1287.53,unknown_male11.jpg
11,2,36,1,1,2,2,1,795.56,unknown_male08.jpg
11,2,37,1,2,4,4,1,879.71,unknown_female12.jpg
11,2,38,2,1,1,1,1,843.8,unknown_male18.jpg
11,2,39,2,2,3,3,1,847.89,unknown_female02.jpg
11,2,40,2,2,4,4,1,579.97,unknown_female07.jpg
11,2,41,1,1,3,3,1,960.06,unknown_male13.jpg
11,2,42,2,1,1,1,1,764.14,unknown_male12.jpg
11,2,43,1,2,4,4,1,664.24,unknown_female17.jpg
11,2,44,1,1,4,4,1,692.32,unknown_male10.jpg
11,2,45,1,1,2,2,1,808.41,unknown_male19.jpg
11,2,46,2,2,1,1,1,676.51,unknown_female10.jpg
11,2,47,2,2,2,2,1,808.53,unknown_female01.jpg
11,2,48,2,1,4,4,1,764.67,unknown_male20.jpg
12,1,1,2,1,3,3,1,975.62,famous_male20.jpg
12,1,2,1,2,4,4,1,1099.79,famous_female24.jpg
12,1,3,2,1,2,2,1,567.84,famous_male24.jpg
12,1,4,2,1,4,4,1,1323.95,famous_male04.jpg
12,1,5,2,2,4,4,1,1400.04,famous_female20.jpg
12,1,6,1,2,4,4,1,1164.13,famous_female14.jpg
12,1,7,1,1,4,4,1,1424.21,famous_male23.jpg
12,1,8,2,2,3,3,1,1276.29,famous_female05.jpg
12,1,9,2,2,4,4,1,1680.42,famous_female23.jpg
12,1,10,1,2,2,2,1,1132.48,famous_female13.jpg
12,1,11,2,2,2,2,1,1360.57,famous_female22.jpg
12,1,12,2,1,3,3,1,1540.66,famous_male10.jpg
12,1,13,2,1,2,2,1,1128.74,famous_male13.jpg
12,1,14,1,1,1,1,1,1028.83,famous_male03.jpg
12,1,15,1,2,2,2,1,1168.84,famous_female18.jpg
12,1,16,1,1,3,3,1,996.99,famous_male02.jpg
12,1,17,2,2,2,2,1,1337.05,famous_female19.jpg
12,1,18,1,1,1,1,1,965.19,famous_male21.jpg
12,1,19,1,2,4,4,1,1009.28,famous_female12.jpg
12,1,20,2,1,1,1,1,1173.35,famous_male06.jpg
12,1,21,1,2,1,1,1,1129.43,famous_female04.jpg
12,1,22,1,1,4,4,1,1053.47,famous_male08.jpg
12,1,23,1,2,1,1,1,1457.63,famous_female07.jpg
12,1,24,2,2,3,3,1,1493.69,famous_female09.jpg
12,1,25,2,1,1,1,1,1049.79,famous_male07.jpg
12,1,26,1,1,2,2,1,1069.88,famous_male22.jpg
12,1,27,1,1,3,3,1,1081.96,famous_male11.jpg
12,1,28,1,1,2,2,1,1318.05,famous_male01.jpg
12,1,29,2,1,4,4,1,834.12,famous_male09.jpg
12,1,30,1,2,2,2,1,1102.16,famous_female16.jpg
12,1,31,1,1,2,2,1,1106.3,famous_male17.jpg
12,1,32,1,2,3,3,1,1110.4,famous_female15.jpg
12,1,33,2,2,1,1,1,1026.48,famous_female17.jpg
12,1,34,2,1,1,1,1,1222.55,famous_male18.jpg
12,1,35,2,2,1,1,1,1234.66,famous_female06.jpg
12,1,36,2,2,3,3,1,1414.74,famous_female08.jpg
12,1,37,1,1,4,4,1,1226.83,famous_male05.jpg
12,1,38,1,1,1,1,1,1126.92,famous_male16.jpg
12,1,39,1,2,3,3,1,1315.01,famous_female10.jpg
12,1,40,1,2,3,3,1,831.04,famous_female02.jpg
12,1,41,2,1,2,2,1,1323.18,famous_male12.jpg
12,1,42,2,2,2,2,1,1199.2,famous_female21.jpg
12,1,43,2,2,4,4,1,1131.33,famous_female01.jpg
12,1,44,2,1,4,4,1,1263.42,famous_male14.jpg
12,1,45,2,1,3,3,1,1147.54,famous_male15.jpg
12,1,46,1,2,1,1,1,1447.62,famous_female11.jpg
12,1,47,2,2,1,1,1,1451.71,famous_female03.jpg
12,1,48,1,1,3,3,1,1183.79,famous_male19.jpg
13,2,1,1,2,2,2,1,766.55,unknown_female03.jpg
13,2,2,1,2,3,3,1,930.7,unknown_female02.jpg
13,2,3,2,2,4,4,1,1134.8,unknown_female13.jpg
13,2,4,1,1,2,2,1,1034.97,unknown_male20.jpg
13,2,5,2,2,4,4,1,1078.99,unknown_female21.jpg
13,2,6,2,2,1,1,1,883.05,unknown_female06.jpg
13,2,7,1,2,3,3,1,679.08,unknown_female08.jpg
13,2,8,2,1,3,3,1,835.22,unknown_male06.jpg
13,2,9,2,1,1,1,1,911.31,unknown_male19.jpg
13,2,10,2,1,2,2,1,723.42,unknown_male17.jpg
13,2,11,1,2,2,2,1,815.49,unknown_female18.jpg
13,2,12,1,1,3,3,1,723.58,unknown_male13.jpg
13,2,13,1,1,3,3,1,631.68,unknown_male01.jpg
13,2,14,2,2,2,2,1,691.75,unknown_female14.jpg
13,2,15,2,1,4,4,1,663.84,unknown_male09.jpg
13,2,16,1,1,1,1,1,779.93,unknown_male22.jpg
13,2,17,1,2,4,4,1,720.02,unknown_female11.jpg
13,2,18,1,1,1,1,1,756.1,unknown_male24.jpg
13,2,19,1,2,4,4,1,976.18,unknown_female23.jpg
13,2,20,2,2,3,3,1,1108.28,unknown_female05.jpg
13,2,21,1,2,1,1,1,872.34,unknown_female19.jpg
13,2,22,1,2,1,1,1,652.46,unknown_female24.jpg
13,2,23,2,2,2,2,1,568.55,unknown_female20.jpg
13,2,24,1,2,2,2,1,852.59,unknown_female12.jpg
13,2,25,1,2,1,1,1,680.72,unknown_female04.jpg
13,2,26,2,1,2,2,1,692.8,unknown_male03.jpg
13,2,27,2,1,4,4,1,880.9,unknown_male15.jpg
13,2,28,1,1,3,3,1,788.93,unknown_male21.jpg
13,2,29,2,2,1,1,1,713.07,unknown_female22.jpg
13,2,30,2,2,2,2,1,973.16,unknown_female15.jpg
13,2,31,2,1,4,4,1,777.24,unknown_male18.jpg
13,2,32,2,1,3,3,1,605.29,unknown_male10.jpg
13,2,33,1,1,4,4,1,649.42,unknown_male16.jpg
13,2,34,1,1,1,1,1,955.34,unknown_male05.jpg
13,2,35,1,1,4,4,1,1575.49,unknown_male08.jpg
13,2,36,2,1,1,1,1,1603.58,unknown_male04.jpg
13,2,37,2,2,3,3,1,839.67,unknown_female10.jpg
13,2,38,1,2,3,3,1,1067.72,unknown_female16.jpg
13,2,39,1,1,4,4,1,751.84,unknown_male12.jpg
13,2,40,2,1,3,3,1,1211.92,unknown_male07.jpg
13,2,41,2,2,1,1,1,808.02,unknown_female17.jpg
13,2,42,2,2,4,4,1,796.1,unknown_female01.jpg
13,2,43,2,1,2,2,1,888.21,unknown_male14.jpg
13,2,44,1,1,2,2,1,844.28,unknown_male11.jpg
13,2,45,2,2,3,3,1,904.36,unknown_female09.jpg
13,2,46,1,2,4,4,1,716.39,unknown_female07.jpg
13,2,47,2,1,1,1,1,1016.55,unknown_male23.jpg
13,2,48,1,1,2,2,1,764.59,unknown_male02.jpg
14,1,1,2,2,1,1,1,2021.83,famous_female01.jpg
14,1,2,1,2,1,1,1,1361.98,famous_female22.jpg
14,1,3,1,2,2,2,1,1166.06,famous_female14.jpg
14,1,4,2,1,4,4,1,1034.18,famous_male11.jpg
14,1,5,1,1,4,4,1,662.2,famous_male07.jpg
14,1,6,1,1,1,1,1,898.33,famous_male08.jpg
14,1,7,2,1,3,3,1,774.41,famous_male10.jpg
14,1,8,1,2,1,1,1,938.5,famous_female24.jpg
14,1,9,2,2,3,3,1,990.59,famous_female04.jpg
14,1,10,2,1,3,3,1,722.68,famous_male13.jpg
14,1,11,1,2,4,4,1,766.8,famous_female23.jpg
14,1,12,1,1,1,1,1,738.87,famous_male04.jpg
14,1,13,2,2,4,4,1,646.27,famous_female16.jpg
14,1,14,2,1,1,1,1,546.35,famous_male23.jpg
14,1,15,2,1,3,3,1,542.42,famous_male12.jpg
14,1,16,1,2,3,3,1,538.51,famous_female18.jpg
14,1,17,1,1,2,2,1,606.61,famous_male20.jpg
14,1,18,1,2,4,4,1,882.68,famous_female20.jpg
14,1,19,2,2,1,1,1,830.73,famous_female10.jpg
14,1,20,1,1,1,1,1,562.85,famous_male14.jpg
14,1,21,2,1,2,2,1,533.79,famous_male05.jpg
14,1,22,1,2,2,2,1,665.94,famous_female03.jpg
14,1,23,1,2,4,4,1,870.03,famous_female21.jpg
14,1,24,1,2,2,2,1,802.11,famous_female13.jpg
14,1,25,2,1,1,1,1,566.2,famous_male24.jpg
14,1,26,1,1,4,4,1,1138.29,famous_male02.jpg
14,1,27,2,1,2,2,1,542.37,famous_male09.jpg
14,1,28,1,2,3,3,1,706.46,famous_female08.jpg
14,1,29,2,1,4,4,1,479.5,famous_male18.jpg
14,1,30,1,1,2,2,1,515.64,famous_male21.jpg
14,1,31,1,1,4,4,1,943.75,famous_male15.jpg
14,1,32,2,1,1,1,1,635.8,famous_male06.jpg
14,1,33,2,2,3,3,1,607.93,famous_female07.jpg
14,1,34,1,1,3,3,1,580.01,famous_male17.jpg
14,1,35,2,2,3,3,1,783.97,famous_female19.jpg
14,1,36,2,2,2,2,1,828.17,famous_female09.jpg
14,1,37,1,1,3,3,1,576.55,famous_male16.jpg
14,1,38,2,2,2,2,1,532.68,famous_female17.jpg
14,1,39,2,2,1,1,1,1048.75,famous_female06.jpg
14,1,40,2,1,4,4,1,1084.82,famous_male03.jpg
14,1,41,1,1,3,3,1,736.9,famous_male19.jpg
14,1,42,2,1,2,2,1,549.01,famous_male01.jpg
14,1,43,2,2,4,4,1,729.1,famous_female05.jpg
14,1,44,1,1,2,2,1,669.18,famous_male22.jpg
14,1,45,1,2,1,1,1,646.72,famous_female15.jpg
14,1,46,2,2,2,2,1,642.84,famous_female12.jpg
14,1,47,1,2,3,3,1,582.95,famous_female11.jpg
14,1,48,2,2,4,4,1,474.97,famous_female02.jpg
15,2,1,1,2,2,2,1,1102.64,unknown_female02.jpg
15,2,2,1,1,1,1,1,1002.79,unknown_male11.jpg
15,2,3,1,2,4,4,1,1110.88,unknown_female04.jpg
15,2,4,2,1,1,1,1,1098.97,unknown_male05.jpg
15,2,5,2,1,4,4,1,1215.06,unknown_male13.jpg
15,2,6,2,2,3,3,1,1451.14,unknown_female23.jpg
15,2,7,1,1,1,1,1,1375.23,unknown_male10.jpg
15,2,8,2,1,2,2,1,851.32,unknown_male04.jpg
15,2,9,1,2,4,4,1,1287.41,unknown_female07.jpg
15,2,10,1,1,2,2,1,1395.52,unknown_male17.jpg
15,2,11,2,1,2,2,1,1391.54,unknown_male07.jpg
15,2,12,2,1,3,3,1,1331.67,unknown_male09.jpg
15,2,13,2,2,4,4,1,1095.76,unknown_female12.jpg
15,2,14,2,1,4,4,1,1067.85,unknown_male03.jpg
15,2,15,2,2,2,2,1,863.94,unknown_female24.jpg
15,2,16,1,2,2,2,1,979.96,unknown_female22.jpg
15,2,17,1,1,3,3,1,1168.12,unknown_male06.jpg
15,2,18,2,1,3,3,1,1044.19,unknown_male02.jpg
15,2,19,2,2,2,2,1,888.26,unknown_female03.jpg
15,2,20,1,2,4,4,1,1204.3,unknown_female17.jpg
15,2,21,1,2,3,3,1,1008.41,unknown_female20.jpg
15,2,22,1,1,4,4,1,1332.54,unknown_male21.jpg
15,2,23,2,2,1,1,1,1488.57,unknown_female06.jpg
15,2,24,1,1,4,4,1,1140.72,unknown_male12.jpg
15,2,25,2,1,1,1,1,1024.81,unknown_male23.jpg
15,2,26,1,2,1,1,1,1060.85,unknown_female15.jpg
15,2,27,1,2,3,3,1,1184.99,unknown_female19.jpg
15,2,28,1,2,3,3,1,1077.07,unknown_female18.jpg
15,2,29,1,1,3,3,1,889.17,unknown_male19.jpg
15,2,30,1,1,2,2,1,1157.24,unknown_male08.jpg
15,2,31,2,1,3,3,1,929.33,unknown_male24.jpg
15,2,32,2,2,3,3,1,1109.42,unknown_female05.jpg
15,2,33,2,1,1,1,1,1009.51,unknown_male22.jpg
15,2,34,2,2,1,1,1,1173.6,unknown_female16.jpg
15,2,35,1,1,3,3,1,1257.63,unknown_male20.jpg
15,2,36,2,2,2,2,1,1053.74,unknown_female08.jpg
15,2,37,1,2,1,1,1,681.86,unknown_female01.jpg
15,2,38,2,2,1,1,1,925.91,unknown_female09.jpg
15,2,39,2,2,3,3,1,962.01,unknown_female13.jpg
15,2,40,1,2,1,1,1,774.07,unknown_female21.jpg
15,2,41,1,1,4,4,1,1090.16,unknown_male14.jpg
15,2,42,2,1,4,4,1,958.28,unknown_male16.jpg
15,2,43,2,1,2,2,1,738.38,unknown_male01.jpg
15,2,44,1,2,2,2,1,950.43,unknown_female14.jpg
15,2,45,2,2,4,4,1,986.49,unknown_female10.jpg
15,2,46,2,2,4,4,1,1222.6,unknown_female11.jpg
15,2,47,1,1,2,2,1,1082.73,unknown_male18.jpg
15,2,48,1,1,1,1,1,966.78,unknown_male15.jpg
16,1,1,1,2,3,3,1,711.55,famous_female08.jpg
16,1,2,2,1,3,3,1,1123.71,famous_male04.jpg
16,1,3,1,1,4,4,1,775.82,famous_male21.jpg
16,1,4,2,2,1,1,1,1035.84,famous_female02.jpg
16,1,5,2,2,2,2,1,1087.98,famous_female01.jpg
16,1,6,1,1,3,3,1,1180.05,famous_male12.jpg
16,1,7,1,2,1,1,1,1072.13,famous_female06.jpg
16,1,8,2,2,4,4,1,1276.22,famous_female18.jpg
16,1,9,1,1,4,4,1,1104.32,famous_male17.jpg
16,1,10,1,1,2,2,1,996.39,famous_male19.jpg
16,1,11,1,1,1,1,1,840.49,famous_male20.jpg
16,1,12,2,2,2,2,1,412.57,famous_female11.jpg
16,1,13,1,2,2,2,1,1000.66,famous_female04.jpg
16,1,14,1,1,4,4,1,860.75,famous_male03.jpg
16,1,15,1,2,2,2,1,888.83,famous_female22.jpg
16,1,16,2,2,1,1,1,1012.92,famous_female12.jpg
16,1,17,2,1,4,4,1,1033.01,famous_male24.jpg
16,1,18,2,2,4,4,1,965.1,famous_female17.jpg
16,1,19,1,1,3,3,1,1017.18,famous_male10.jpg
16,1,20,1,2,4,4,1,1397.24,famous_female19.jpg
16,1,21,2,1,1,1,1,1417.35,famous_male13.jpg
16,1,22,2,1,3,3,1,1181.42,famous_male15.jpg
16,1,23,2,1,4,4,1,1361.52,famous_male16.jpg
16,1,24,1,2,2,2,1,1085.59,famous_female09.jpg
16,1,25,1,2,4,4,1,1025.74,famous_female05.jpg
16,1,26,2,2,3,3,1,1029.8,famous_female23.jpg
16,1,27,2,2,3,3,1,1217.89,famous_female07.jpg
16,1,28,2,1,3,3,1,1277.98,famous_male05.jpg
16,1,29,1,2,1,1,1,1458.06,famous_female24.jpg
16,1,30,1,2,1,1,1,1094.15,famous_female03.jpg
16,1,31,1,1,1,1,1,1074.22,famous_male18.jpg
16,1,32,2,1,1,1,1,534.26,famous_male11.jpg
16,1,33,2,2,4,4,1,1066.34,famous_female15.jpg
16,1,34,2,2,2,2,1,1302.44,famous_female13.jpg
16,1,35,1,2,4,4,1,842.58,famous_female14.jpg
16,1,36,1,1,2,2,1,902.67,famous_male09.jpg
16,1,37,1,1,3,3,1,1114.76,famous_male07.jpg
16,1,38,2,1,1,1,1,1078.87,famous_male08.jpg
16,1,39,1,2,3,3,1,1370.93,famous_female10.jpg
16,1,40,2,1,4,4,1,1399.01,famous_male23.jpg
16,1,41,1,1,2,2,1,1171.12,famous_male14.jpg
16,1,42,2,2,3,3,1,999.2,famous_female20.jpg
16,1,43,2,2,1,1,1,1091.29,famous_female21.jpg
16,1,44,2,1,2,2,1,1247.36,famous_male06.jpg
16,1,45,1,2,3,3,1,1075.47,famous_female16.jpg
16,1,46,2,1,2,2,1,1383.55,famous_male01.jpg
16,1,47,1,1,1,1,1,1243.62,famous_male22.jpg
16,1,48,2,1,2,2,1,1071.71,famous_male02.jpg
17,2,1,1,2,2,2,1,843.4,unknown_female20.jpg
17,2,2,2,1,3,3,1,1223.52,unknown_male18.jpg
17,2,3,2,1,2,2,1,1475.59,unknown_male07.jpg
17,2,4,2,1,4,4,1,911.61,unknown_male22.jpg
17,2,5,1,1,1,1,1,883.76,unknown_male13.jpg
17,2,6,1,2,1,1,1,911.87,unknown_female16.jpg
17,2,7,2,1,2,2,1,819.95,unknown_male24.jpg
17,2,8,1,1,1,1,1,808.04,unknown_male17.jpg
17,2,9,1,2,2,2,1,708.13,unknown_female21.jpg
17,2,10,1,1,3,3,1,984.22,unknown_male05.jpg
17,2,11,2,1,1,1,1,828.3,unknown_male23.jpg
17,2,12,2,2,2,2,1,920.39,unknown_female22.jpg
17,2,13,1,1,4,4,1,908.48,unknown_male01.jpg
17,2,14,1,1,2,2,1,856.56,unknown_male15.jpg
17,2,15,1,1,4,4,1,764.66,unknown_male08.jpg
17,2,16,2,2,2,2,1,912.74,unknown_female14.jpg
17,2,17,2,2,3,3,1,1116.8,unknown_female19.jpg
17,2,18,1,2,3,3,1,944.9,unknown_female05.jpg
17,2,19,2,2,1,1,1,1020.97,unknown_female15.jpg
17,2,20,2,2,4,4,1,1129.06,unknown_female08.jpg
17,2,21,2,2,3,3,1,1069.12,unknown_female12.jpg
17,2,22,1,1,1,1,1,1025.24,unknown_male06.jpg
17,2,23,2,2,4,4,1,1245.33,unknown_female06.jpg
17,2,24,1,2,1,1,1,953.41,unknown_female17.jpg
17,2,25,2,1,3,3,1,1381.53,unknown_male21.jpg
17,2,26,2,1,4,4,1,1153.61,unknown_male09.jpg
17,2,27,2,2,1,1,1,1197.68,unknown_female02.jpg
17,2,28,1,2,4,4,1,921.79,unknown_female18.jpg
17,2,29,2,1,4,4,1,1285.78,unknown_male12.jpg
17,2,30,1,2,2,2,1,905.94,unknown_female11.jpg
17,2,31,1,2,4,4,1,822.02,unknown_female07.jpg
17,2,32,2,1,1,1,1,1234.13,unknown_male16.jpg
17,2,33,2,2,1,1,1,1038.2,unknown_female24.jpg
17,2,34,1,1,3,3,1,978.31,unknown_male19.jpg
17,2,35,1,2,4,4,1,1118.4,unknown_female04.jpg
17,2,36,2,2,2,2,1,978.47,unknown_female23.jpg
17,2,37,1,2,3,3,1,1334.57,unknown_female10.jpg
17,2,38,1,1,2,2,1,1058.63,unknown_male20.jpg
17,2,39,1,2,3,3,1,958.72,unknown_female09.jpg
17,2,40,2,1,3,3,1,1282.84,unknown_male14.jpg
17,2,41,1,2,1,1,1,1430.89,unknown_female01.jpg
17,2,42,2,2,3,3,1,1674.99,unknown_female03.jpg
17,2,43,2,1,1,1,1,1239.07,unknown_male10.jpg
17,2,44,2,2,4,4,1,987.19,unknown_female13.jpg
17,2,45,1,1,3,3,1,1191.24,unknown_male03.jpg
17,2,46,2,1,2,2,1,1035.29,unknown_male11.jpg
17,2,47,1,1,4,4,1,967.41,unknown_male04.jpg
17,2,48,1,1,2,2,1,1355.52,unknown_male02.jpg
18,1,1,2,1,4,4,1,1191.69,famous_male08.jpg
18,1,2,1,2,4,4,1,1211.76,famous_female02.jpg
18,1,3,2,2,4,4,1,1095.85,famous_female16.jpg
18,1,4,2,1,2,2,1,803.94,famous_male22.jpg
18,1,5,2,2,3,3,1,824.03,famous_female08.jpg
18,1,6,2,1,2,2,1,772.11,famous_male16.jpg
18,1,7,1,2,4,4,1,944.24,famous_female10.jpg
18,1,8,2,2,3,3,1,756.29,famous_female04.jpg
18,1,9,1,1,3,3,1,928.37,famous_male02.jpg
18,1,10,1,1,2,2,1,804.5,famous_male12.jpg
18,1,11,2,2,1,1,1,904.56,famous_female21.jpg
18,1,12,2,1,3,3,1,1444.63,famous_male17.jpg
18,1,13,2,2,2,2,1,1248.73,famous_female13.jpg
18,1,14,2,2,2,2,1,1260.81,famous_female01.jpg
18,1,15,2,1,3,3,1,1352.9,famous_male07.jpg
18,1,16,1,1,1,1,1,1108.99,famous_male23.jpg
18,1,17,1,1,4,4,1,1137.04,famous_male01.jpg
18,1,18,1,2,3,3,1,1157.12,famous_female12.jpg
18,1,19,2,1,3,3,1,1289.24,famous_male19.jpg
18,1,20,2,2,1,1,1,1125.34,famous_female14.jpg
18,1,21,2,1,1,1,1,1225.41,famous_male05.jpg
18,1,22,1,1,4,4,1,1325.52,famous_male10.jpg
18,1,23,1,2,3,3,1,1073.6,famous_female22.jpg
18,1,24,2,2,2,2,1,1341.7,famous_female09.jpg
18,1,25,1,1,1,1,1,897.79,famous_male14.jpg
18,1,26,1,1,3,3,1,1181.86,famous_male21.jpg
18,1,27,1,2,1,1,1,945.95,famous_female24.jpg
18,1,28,1,1,3,3,1,1293.98,famous_male03.jpg
18,1,29,2,1,4,4,1,1282.12,famous_male18.jpg
18,1,30,2,2,4,4,1,1246.23,famous_female11.jpg
18,1,31,1,2,4,4,1,1274.3,famous_female07.jpg
18,1,32,2,1,4,4,1,990.39,famous_male09.jpg
18,1,33,1,1,4,4,1,1290.47,famous_male11.jpg
18,1,34,1,2,1,1,1,1310.57,famous_female18.jpg
18,1,35,2,2,4,4,1,802.65,famous_female03.jpg
18,1,36,1,2,2,2,1,1358.74,famous_female19.jpg
18,1,37,2,2,3,3,1,1282.79,famous_female17.jpg
18,1,38,1,1,1,1,1,1134.91,famous_male04.jpg
18,1,39,1,1,2,2,1,970.99,famous_male13.jpg
18,1,40,1,2,1,1,1,943.97,famous_female06.jpg
18,1,41,1,2,2,2,1,980.18,famous_female23.jpg
18,1,42,2,1,2,2,1,880.27,famous_male15.jpg
18,1,43,1,2,3,3,1,1076.31,famous_female20.jpg
18,1,44,2,1,1,1,1,1120.44,famous_male06.jpg
18,1,45,1,2,2,2,1,1572.61,famous_female05.jpg
18,1,46,2,1,1,1,1,1040.58,famous_male20.jpg
18,1,47,1,1,2,2,1,1228.7,famous_male24.jpg
18,1,48,2,2,1,1,1,1461.54,famous_female15.jpg
19,2,1,1,1,2,0,0,0,unknown_male06.jpg
19,2,2,2,1,3,3,1,2206.96,unknown_male07.jpg
19,2,3,2,2,2,2,1,867.09,unknown_female18.jpg
19,2,4,1,2,3,3,1,783.19,unknown_female22.jpg
19,2,5,2,1,1,1,1,827.27,unknown_male02.jpg
19,2,6,2,2,2,2,1,695.37,unknown_female01.jpg
19,2,7,1,1,3,3,1,563.47,unknown_male08.jpg
19,2,8,1,1,1,1,1,591.54,unknown_male19.jpg
19,2,9,2,2,2,2,1,611.59,unknown_female05.jpg
19,2,10,2,1,4,4,1,1175.71,unknown_male17.jpg
19,2,11,1,1,1,1,1,419.76,unknown_male16.jpg
19,2,12,2,1,2,2,1,559.89,unknown_male03.jpg
19,2,13,2,1,1,1,1,555.97,unknown_male12.jpg
19,2,14,2,2,4,4,1,856.06,unknown_female21.jpg
19,2,15,1,2,3,3,1,588.11,unknown_female13.jpg
19,2,16,1,2,2,2,1,408.23,unknown_female12.jpg
19,2,17,1,2,4,4,1,748.32,unknown_female03.jpg
19,2,18,2,2,3,3,1,2912.4,unknown_female08.jpg
19,2,19,1,1,3,3,1,500.49,unknown_male01.jpg
19,2,20,1,2,4,4,1,992.51,unknown_female07.jpg
19,2,21,2,2,1,1,1,324.67,unknown_female02.jpg
19,2,22,1,1,1,1,1,432.75,unknown_male23.jpg
19,2,23,1,1,4,4,1,572.89,unknown_male21.jpg
19,2,24,2,1,2,2,1,432.89,unknown_male14.jpg
19,2,25,1,1,2,2,1,549.02,unknown_male22.jpg
19,2,26,2,2,4,4,1,681.11,unknown_female11.jpg
19,2,27,2,1,3,3,1,653.2,unknown_male24.jpg
19,2,28,2,1,4,4,1,697.31,unknown_male05.jpg
19,2,29,2,2,4,4,1,589.37,unknown_female14.jpg
19,2,30,2,1,1,1,1,673.46,unknown_male09.jpg
19,2,31,2,2,3,3,1,565.55,unknown_female19.jpg
19,2,32,1,2,1,1,1,657.58,unknown_female23.jpg
19,2,33,2,1,2,2,1,509.68,unknown_male10.jpg
19,2,34,2,1,3,3,1,617.77,unknown_male13.jpg
19,2,35,1,1,3,3,1,613.89,unknown_male20.jpg
19,2,36,1,2,4,4,1,634.01,unknown_female04.jpg
19,2,37,1,1,4,4,1,662.02,unknown_male15.jpg
19,2,38,1,1,4,4,1,754.09,unknown_male18.jpg
19,2,39,1,2,1,1,1,350.25,unknown_female15.jpg
19,2,40,1,2,3,3,1,634.37,unknown_female16.jpg
19,2,41,2,2,3,3,1,478.35,unknown_female20.jpg
19,2,42,2,2,1,1,1,386.51,unknown_female10.jpg
19,2,43,1,2,1,1,1,358.6,unknown_female17.jpg
19,2,44,2,1,4,4,1,602.68,unknown_male04.jpg
19,2,45,2,2,1,1,1,430.76,unknown_female09.jpg
19,2,46,1,1,2,2,1,450.77,unknown_male11.jpg
19,2,47,1,2,2,2,1,566.95,unknown_female06.jpg
19,2,48,1,2,2,2,1,539.03,unknown_female24.jpg
20,1,1,2,1,2,2,1,573.02,famous_male23.jpg
20,1,2,1,2,1,1,1,497.17,famous_female24.jpg
20,1,3,1,1,2,2,1,429.26,famous_male05.jpg
20,1,4,2,1,1,1,1,681.36,famous_male17.jpg
20,1,5,1,2,4,4,1,965.43,famous_female09.jpg
20,1,6,1,1,2,2,1,777.52,famous_male09.jpg
20,1,7,1,2,2,2,1,717.61,famous_female11.jpg
20,1,8,1,1,3,3,1,785.63,famous_male16.jpg
20,1,9,2,2,2,2,1,669.78,famous_female06.jpg
20,1,10,2,1,3,3,1,649.89,famous_male22.jpg
20,1,11,2,2,3,3,1,917.9,famous_female19.jpg
20,1,12,1,2,1,1,1,658.06,famous_female18.jpg
20,1,13,1,1,4,4,1,814.11,famous_male10.jpg
20,1,14,2,2,1,1,1,738.24,famous_female12.jpg
20,1,15,1,1,3,3,1,822.28,famous_male15.jpg
20,1,16,2,2,2,2,1,762.41,famous_female10.jpg
20,1,17,2,2,4,4,1,774.49,famous_female20.jpg
20,1,18,2,1,4,4,1,674.57,famous_male03.jpg
20,1,19,2,2,3,3,1,902.62,famous_female15.jpg
20,1,20,2,2,4,4,1,722.76,famous_female22.jpg
20,1,21,2,2,2,2,1,950.84,famous_female05.jpg
20,1,22,1,1,1,1,1,730.94,famous_male08.jpg
20,1,23,2,1,4,4,1,687.02,famous_male24.jpg
20,1,24,2,1,1,1,1,771.07,famous_male13.jpg
20,1,25,1,1,4,4,1,759.19,famous_male06.jpg
20,1,26,1,2,1,1,1,699.27,famous_female03.jpg
20,1,27,2,2,3,3,1,767.3,famous_female08.jpg
20,1,28,2,1,3,3,1,587.45,famous_male19.jpg
20,1,29,1,2,4,4,1,639.53,famous_female16.jpg
20,1,30,1,1,1,1,1,523.63,famous_male11.jpg
20,1,31,2,1,3,3,1,727.65,famous_male01.jpg
20,1,32,2,1,1,1,1,499.81,famous_male14.jpg
20,1,33,2,1,2,2,1,927.9,famous_male21.jpg
20,1,34,2,1,2,2,1,667.9,famous_male07.jpg
20,1,35,1,2,2,2,1,1000.06,famous_female01.jpg
20,1,36,1,1,3,3,1,1052.12,famous_male04.jpg
20,1,37,1,2,3,3,1,456.23,famous_female13.jpg
20,1,38,1,1,4,4,1,740.3,famous_male20.jpg
20,1,39,2,2,1,1,1,1232.42,famous_female21.jpg
20,1,40,1,2,4,4,1,628.45,famous_female04.jpg
20,1,41,1,1,2,2,1,632.58,famous_male12.jpg
20,1,42,2,2,1,1,1,716.69,famous_female23.jpg
20,1,43,2,1,4,4,1,496.75,famous_male18.jpg
20,1,44,2,2,4,4,1,476.84,famous_female17.jpg
20,1,45,1,2,3,3,1,928.93,famous_female14.jpg
20,1,46,1,2,3,3,1,1532.95,famous_female02.jpg
20,1,47,1,2,2,2,1,873.12,famous_female07.jpg
20,1,48,1,1,1,1,1,693.19,famous_male02.jpg
21,2,1,1,2,1,1,1,714.13,unknown_female14.jpg
21,2,2,2,1,3,3,1,1126.29,unknown_male17.jpg
21,2,3,2,2,2,2,1,1650.37,unknown_female09.jpg
21,2,4,1,1,1,1,1,1206.42,unknown_male15.jpg
21,2,5,1,2,4,4,1,1170.55,unknown_female05.jpg
21,2,6,2,1,1,1,1,1078.57,unknown_male09.jpg
21,2,7,1,2,2,2,1,1162.72,unknown_female04.jpg
21,2,8,1,1,3,3,1,1446.74,unknown_male06.jpg
21,2,9,1,2,1,1,1,1330.89,unknown_female08.jpg
21,2,10,1,2,2,2,1,1118.85,unknown_female11.jpg
21,2,11,1,1,2,2,1,779.07,unknown_male24.jpg
21,2,12,2,1,3,3,1,1319.13,unknown_male18.jpg
21,2,13,2,2,4,4,1,1707.24,unknown_female19.jpg
21,2,14,2,2,4,4,1,1679.34,unknown_female17.jpg
21,2,15,2,2,3,3,1,1627.43,unknown_female07.jpg
21,2,16,1,2,3,3,1,2015.51,unknown_female18.jpg
21,2,17,1,1,3,3,1,1595.56,unknown_male04.jpg
21,2,18,1,1,2,2,1,1223.69,unknown_male05.jpg
21,2,19,2,2,4,4,1,1507.78,unknown_female03.jpg
21,2,20,1,1,1,1,1,1815.87,unknown_male11.jpg
21,2,21,2,1,2,2,1,1763.95,unknown_male21.jpg
21,2,22,1,2,3,3,1,1968.04,unknown_female16.jpg
21,2,23,1,2,4,4,1,2964.13,unknown_female23.jpg
21,2,24,1,1,2,2,1,976.2,unknown_male02.jpg
21,2,25,1,2,3,3,1,1212.3,unknown_female22.jpg
21,2,26,1,1,1,1,1,1272.39,unknown_male16.jpg
21,2,27,1,2,4,4,1,1812.43,unknown_female21.jpg
21,2,28,1,2,2,2,1,1136.57,unknown_female06.jpg
21,2,29,2,1,1,1,1,1372.65,unknown_male20.jpg
21,2,30,2,2,3,3,1,1328.73,unknown_female24.jpg
21,2,31,1,1,4,4,1,1004.82,unknown_male01.jpg
21,2,32,1,1,4,4,1,800.9,unknown_male08.jpg
21,2,33,2,2,2,2,1,1285,unknown_female13.jpg
21,2,34,1,1,3,3,1,1201.09,unknown_male10.jpg
21,2,35,2,2,1,1,1,1597.17,unknown_female20.jpg
21,2,36,2,2,1,1,1,1209.26,unknown_female10.jpg
21,2,37,2,1,3,3,1,1925.34,unknown_male13.jpg
21,2,38,2,2,3,3,1,1185.44,unknown_female02.jpg
21,2,39,2,1,1,1,1,2101.52,unknown_male03.jpg
21,2,40,2,2,1,1,1,1377.62,unknown_female12.jpg
21,2,41,2,1,4,4,1,1517.65,unknown_male07.jpg
21,2,42,2,2,2,2,1,1113.74,unknown_female01.jpg
21,2,43,2,1,2,2,1,1645.87,unknown_male22.jpg
21,2,44,1,1,4,4,1,1361.97,unknown_male19.jpg
21,2,45,2,1,2,2,1,1470.04,unknown_male12.jpg
21,2,46,2,1,4,4,1,1202.15,unknown_male23.jpg
21,2,47,2,1,4,4,1,1950.22,unknown_male14.jpg
21,2,48,1,2,1,1,1,1042.31,unknown_female15.jpg
22,1,1,2,2,2,0,0,0,famous_female04.jpg
22,1,2,2,1,1,2,0,1209.98,famous_male11.jpg
22,1,3,2,1,1,1,1,678.09,famous_male24.jpg
22,1,4,2,1,4,4,1,962.13,famous_male03.jpg
22,1,5,1,1,2,2,1,638.22,famous_male19.jpg
22,1,6,2,1,2,2,1,626.31,famous_male17.jpg
22,1,7,2,2,2,2,1,630.4,famous_female18.jpg
22,1,8,1,1,4,4,1,826.52,famous_male18.jpg
22,1,9,2,2,2,2,1,662.58,famous_female01.jpg
22,1,10,1,2,1,1,1,682.7,famous_female07.jpg
22,1,11,1,1,3,3,1,846.81,famous_male20.jpg
22,1,12,2,1,1,1,1,714.83,famous_male05.jpg
22,1,13,2,1,2,2,1,518.95,famous_male10.jpg
22,1,14,2,2,3,3,1,811.03,famous_female23.jpg
22,1,15,2,2,4,4,1,983.15,famous_female11.jpg
22,1,16,1,2,3,3,1,691.2,famous_female03.jpg
22,1,17,1,2,3,3,1,703.3,famous_female10.jpg
22,1,18,1,2,4,4,1,891.37,famous_female08.jpg
22,1,19,1,2,3,3,1,919.44,famous_female02.jpg
22,1,20,1,1,4,4,1,819.56,famous_male22.jpg
22,1,21,1,2,1,1,1,687.62,famous_female17.jpg
22,1,22,1,2,2,2,1,515.71,famous_female16.jpg
22,1,23,2,1,3,3,1,695.78,famous_male04.jpg
22,1,24,1,1,1,1,1,971.91,famous_male13.jpg
22,1,25,1,1,4,4,1,1047.99,famous_male08.jpg
22,1,26,1,2,2,2,1,1060.08,famous_female12.jpg
22,1,27,2,1,2,2,1,680.14,famous_male16.jpg
22,1,28,1,1,3,3,1,1068.23,famous_male09.jpg
22,1,29,2,2,1,1,1,944.32,famous_female24.jpg
22,1,30,1,1,1,1,1,956.45,famous_male01.jpg
22,1,31,1,2,2,2,1,776.49,famous_female22.jpg
22,1,32,2,2,3,3,1,1116.57,famous_female05.jpg
22,1,33,1,1,1,1,1,1328.66,famous_male23.jpg
22,1,34,1,2,4,4,1,1100.78,famous_female06.jpg
22,1,35,2,1,3,3,1,1040.87,famous_male07.jpg
22,1,36,1,1,2,2,1,876.92,famous_male12.jpg
22,1,37,1,1,3,3,1,1049.04,famous_male02.jpg
22,1,38,2,2,1,1,1,1285.1,famous_female21.jpg
22,1,39,2,2,1,1,1,1177.09,famous_female13.jpg
22,1,40,1,2,4,4,1,1045.31,famous_female09.jpg
22,1,41,2,1,4,4,1,1417.39,famous_male06.jpg
22,1,42,1,1,2,2,1,1389.45,famous_male14.jpg
22,1,43,2,2,3,3,1,1257.57,famous_female15.jpg
22,1,44,2,2,4,4,1,1181.62,famous_female14.jpg
22,1,45,1,2,1,1,1,1225.75,famous_female20.jpg
22,1,46,2,1,4,4,1,1165.83,famous_male21.jpg
22,1,47,2,2,4,4,1,1305.88,famous_female19.jpg
22,1,48,2,1,3,3,1,1133.98,famous_male15.jpg
23,2,1,2,1,4,4,1,791.39,unknown_male01.jpg
23,2,2,1,2,1,1,1,555.52,unknown_female18.jpg
23,2,3,1,1,1,1,1,671.63,unknown_male17.jpg
23,2,4,1,1,4,4,1,691.71,unknown_male24.jpg
23,2,5,2,1,2,2,1,599.8,unknown_male22.jpg
23,2,6,2,2,2,2,1,763.88,unknown_female19.jpg
23,2,7,2,1,2,2,1,631.97,unknown_male14.jpg
23,2,8,2,2,3,3,1,844.07,unknown_female08.jpg
23,2,9,2,1,4,4,1,736.14,unknown_male23.jpg
23,2,10,2,2,4,4,1,652.23,unknown_female21.jpg
23,2,11,1,2,2,2,1,736.32,unknown_female05.jpg
23,2,12,2,1,4,4,1,876.41,unknown_male05.jpg
23,2,13,2,2,1,1,1,820.96,unknown_female22.jpg
23,2,14,2,2,2,2,1,625.09,unknown_female14.jpg
23,2,15,1,2,4,4,1,773.14,unknown_female04.jpg
23,2,16,2,1,3,3,1,601.17,unknown_male06.jpg
23,2,17,2,2,1,1,1,661.34,unknown_female01.jpg
23,2,18,2,2,4,4,1,505.4,unknown_female23.jpg
23,2,19,1,2,3,3,1,661.52,unknown_female12.jpg
23,2,20,2,1,1,1,1,489.58,unknown_male19.jpg
23,2,21,2,2,2,2,1,693.69,unknown_female16.jpg
23,2,22,1,1,2,2,1,825.78,unknown_male10.jpg
23,2,23,1,2,2,2,1,765.87,unknown_female10.jpg
23,2,24,1,2,4,4,1,937.97,unknown_female07.jpg
23,2,25,1,2,3,3,1,790.05,unknown_female06.jpg
23,2,26,2,2,3,3,1,690.09,unknown_female13.jpg
23,2,27,2,2,4,4,1,710.22,unknown_female17.jpg
23,2,28,1,2,4,4,1,730.31,unknown_female09.jpg
23,2,29,1,1,1,1,1,630.36,unknown_male21.jpg
23,2,30,1,1,1,1,1,754.48,unknown_male03.jpg
23,2,31,1,2,1,1,1,670.59,unknown_female24.jpg
23,2,32,2,1,1,1,1,1034.59,unknown_male09.jpg
23,2,33,1,1,4,4,1,822.74,unknown_male20.jpg
23,2,34,1,2,2,2,1,722.8,unknown_female03.jpg
23,2,35,1,1,4,4,1,1158.92,unknown_male04.jpg
23,2,36,1,1,2,2,1,874.97,unknown_male02.jpg
23,2,37,1,2,3,3,1,807.09,unknown_female02.jpg
23,2,38,2,2,3,3,1,939.18,unknown_female15.jpg
23,2,39,2,1,3,3,1,1239.28,unknown_male13.jpg
23,2,40,2,1,2,2,1,891.35,unknown_male16.jpg
23,2,41,1,1,3,3,1,911.45,unknown_male18.jpg
23,2,42,2,1,1,1,1,1163.5,unknown_male08.jpg
23,2,43,1,1,3,3,1,943.62,unknown_male15.jpg
23,2,44,2,2,1,1,1,1195.71,unknown_female20.jpg
23,2,45,2,1,3,3,1,783.83,unknown_male12.jpg
23,2,46,1,1,2,2,1,1187.88,unknown_male07.jpg
23,2,47,1,2,1,1,1,1223.96,unknown_female11.jpg
23,2,48,1,1,3,3,1,1028.06,unknown_male11.jpg
24,1,1,2,2,4,4,1,687.33,famous_female09.jpg
24,1,2,1,1,4,4,1,683.47,famous_male04.jpg
24,1,3,1,2,3,3,1,663.57,famous_female19.jpg
24,1,4,2,2,4,4,1,499.64,famous_female22.jpg
24,1,5,1,2,2,2,1,815.72,famous_female20.jpg
24,1,6,2,2,3,3,1,739.8,famous_female12.jpg
24,1,7,2,2,2,2,1,2319.91,famous_female14.jpg
24,1,8,1,2,4,4,1,2204.01,famous_female04.jpg
24,1,9,2,1,3,3,1,1296.08,famous_male14.jpg
24,1,10,2,2,4,4,1,1516.17,famous_female06.jpg
24,1,11,2,2,2,2,1,2944.2,famous_female01.jpg
24,1,12,1,2,3,3,1,492.28,famous_female16.jpg
24,1,13,1,1,4,4,1,536.43,famous_male20.jpg
24,1,14,2,2,3,3,1,868.51,famous_female07.jpg
24,1,15,1,2,4,4,1,496.62,famous_female21.jpg
24,1,16,1,1,4,4,1,1228.67,famous_male02.jpg
24,1,17,1,2,1,1,1,1264.78,famous_female13.jpg
24,1,18,2,1,4,4,1,500.87,famous_male22.jpg
24,1,19,1,1,3,3,1,984.95,famous_male24.jpg
24,1,20,2,1,2,2,1,701.04,famous_male11.jpg
24,1,21,2,2,2,2,1,625.15,famous_female02.jpg
24,1,22,1,1,1,1,1,893.22,famous_male15.jpg
24,1,23,1,2,1,1,1,785.22,famous_female15.jpg
24,1,24,1,1,2,2,1,701.31,famous_male18.jpg
24,1,25,1,1,3,3,1,369.48,famous_male10.jpg
24,1,26,2,1,1,1,1,741.57,famous_male09.jpg
24,1,27,2,1,4,4,1,465.67,famous_male23.jpg
24,1,28,1,1,3,3,1,717.77,famous_male06.jpg
24,1,29,1,1,1,1,1,873.82,famous_male08.jpg
24,1,30,2,2,1,1,1,709.92,famous_female10.jpg
24,1,31,1,2,2,2,1,634,famous_female23.jpg
24,1,32,2,1,3,3,1,622.06,famous_male03.jpg
24,1,33,1,2,4,4,1,714.17,famous_female18.jpg
24,1,34,1,2,1,1,1,758.26,famous_female05.jpg
24,1,35,2,1,3,3,1,826.36,famous_male05.jpg
24,1,36,1,2,2,2,1,510.44,famous_female17.jpg
24,1,37,2,1,2,2,1,546.53,famous_male21.jpg
24,1,38,2,2,1,1,1,702.61,famous_female24.jpg
24,1,39,2,1,4,4,1,706.7,famous_male16.jpg
24,1,40,1,1,2,2,1,822.79,famous_male13.jpg
24,1,41,2,1,1,1,1,1162.88,famous_male17.jpg
24,1,42,2,2,3,3,1,1062.95,famous_female08.jpg
24,1,43,2,2,1,1,1,1067.05,famous_female11.jpg
24,1,44,2,1,1,1,1,615.16,famous_male07.jpg
24,1,45,1,2,3,3,1,979.25,famous_female03.jpg
24,1,46,1,1,1,1,1,943.32,famous_male01.jpg
24,1,47,1,1,2,2,1,667.4,famous_male12.jpg
24,1,48,2,1,2,2,1,935.49,famous_male19.jpg
25,2,1,1,1,1,1,1,445.63,unknown_male08.jpg
25,2,2,2,1,2,2,1,577.78,unknown_male09.jpg
25,2,3,2,1,2,2,1,869.86,unknown_male11.jpg
25,2,4,2,2,1,1,1,761.94,unknown_female15.jpg
25,2,5,1,2,4,4,1,678.04,unknown_female10.jpg
25,2,6,2,2,3,3,1,690.08,unknown_female18.jpg
25,2,7,2,1,4,4,1,574.21,unknown_male03.jpg
25,2,8,2,2,4,4,1,586.29,unknown_female22.jpg
25,2,9,1,1,3,3,1,654.4,unknown_male06.jpg
25,2,10,1,1,2,2,1,506.48,unknown_male14.jpg
25,2,11,2,1,4,4,1,606.55,unknown_male18.jpg
25,2,12,2,1,3,3,1,690.65,unknown_male22.jpg
25,2,13,2,1,2,2,1,566.7,unknown_male13.jpg
25,2,14,1,1,1,1,1,570.82,unknown_male19.jpg
25,2,15,2,2,2,2,1,678.87,unknown_female17.jpg
25,2,16,2,1,4,4,1,842.93,unknown_male01.jpg
25,2,17,2,2,1,1,1,487.09,unknown_female24.jpg
25,2,18,2,2,4,4,1,611.18,unknown_female11.jpg
25,2,19,2,2,3,3,1,743.27,unknown_female01.jpg
25,2,20,1,2,2,2,1,403.35,unknown_female12.jpg
25,2,21,2,2,4,4,1,591.43,unknown_female03.jpg
25,2,22,2,1,1,1,1,515.51,unknown_male10.jpg
25,2,23,2,1,3,3,1,559.6,unknown_male15.jpg
25,2,24,1,2,2,2,1,451.7,unknown_female04.jpg
25,2,25,2,2,2,2,1,391.78,unknown_female23.jpg
25,2,26,2,1,1,1,1,491.86,unknown_male07.jpg
25,2,27,2,1,1,1,1,447.95,unknown_male04.jpg
25,2,28,1,2,3,3,1,540.06,unknown_female13.jpg
25,2,29,2,2,3,3,1,456.12,unknown_female02.jpg
25,2,30,2,1,3,3,1,324.22,unknown_male23.jpg
25,2,31,1,1,1,1,1,456.3,unknown_male05.jpg
25,2,32,1,2,1,1,1,516.39,unknown_female06.jpg
25,2,33,1,2,3,3,1,544.43,unknown_female07.jpg
25,2,34,1,1,4,4,1,540.57,unknown_male24.jpg
25,2,35,2,2,2,2,1,496.66,unknown_female09.jpg
25,2,36,1,1,2,2,1,388.74,unknown_male12.jpg
25,2,37,1,1,2,2,1,536.83,unknown_male16.jpg
25,2,38,1,1,3,3,1,636.91,unknown_male02.jpg
25,2,39,1,2,2,2,1,705,unknown_female21.jpg
25,2,40,1,2,4,4,1,485.02,unknown_female20.jpg
25,2,41,1,1,4,4,1,545.17,unknown_male21.jpg
25,2,42,1,1,3,3,1,805.29,unknown_male20.jpg
25,2,43,2,2,1,1,1,489.35,unknown_female05.jpg
25,2,44,1,1,4,4,1,429.43,unknown_male17.jpg
25,2,45,1,2,1,1,1,385.52,unknown_female08.jpg
25,2,46,1,2,1,1,1,461.65,unknown_female19.jpg
25,2,47,1,2,3,3,1,537.71,unknown_female16.jpg
25,2,48,1,2,4,4,1,517.68,unknown_female14.jpg
26,1,1,2,1,3,3,1,718.22,famous_male23.jpg
26,1,2,1,2,4,4,1,698.37,famous_female04.jpg
26,1,3,2,2,1,1,1,782.47,famous_female19.jpg
26,1,4,1,1,2,2,1,778.55,famous_male15.jpg
26,1,5,1,2,2,2,1,990.63,famous_female22.jpg
26,1,6,2,2,3,3,1,850.72,famous_female01.jpg
26,1,7,1,1,2,2,1,702.81,famous_male11.jpg
26,1,8,2,2,3,3,1,1074.9,famous_female18.jpg
26,1,9,1,2,1,1,1,782.98,famous_female20.jpg
26,1,10,2,1,3,3,1,891.1,famous_male22.jpg
26,1,11,2,2,2,2,1,1423.16,famous_female10.jpg
26,1,12,2,1,2,2,1,995.23,famous_male02.jpg
26,1,13,1,1,4,4,1,799.32,famous_male18.jpg
26,1,14,2,2,1,1,1,1427.41,famous_female16.jpg
26,1,15,1,2,1,1,1,695.5,famous_female02.jpg
26,1,16,2,1,1,1,1,1891.59,famous_male10.jpg
26,1,17,1,2,3,3,1,943.7,famous_female24.jpg
26,1,18,2,2,4,4,1,1835.77,famous_female11.jpg
26,1,19,1,1,4,4,1,1703.85,famous_male13.jpg
26,1,20,1,1,3,3,1,1403.89,famous_male14.jpg
26,1,21,1,2,2,2,1,1088.03,famous_female08.jpg
26,1,22,1,2,3,3,1,820.12,famous_female21.jpg
26,1,23,2,1,3,3,1,1048.2,famous_male16.jpg
26,1,24,1,1,4,4,1,1356.25,famous_male12.jpg
26,1,25,1,2,3,3,1,648.39,famous_female23.jpg
26,1,26,2,1,4,4,1,444.41,famous_male03.jpg
26,1,27,2,2,3,3,1,816.56,famous_female06.jpg
26,1,28,1,1,1,1,1,1116.58,famous_male21.jpg
26,1,29,1,1,1,1,1,2368.7,famous_male20.jpg
26,1,30,2,1,1,1,1,1428.81,famous_male19.jpg
26,1,31,1,2,2,2,1,1432.87,famous_female14.jpg
26,1,32,1,2,4,4,1,1412.96,famous_female03.jpg
26,1,33,2,2,2,2,1,1729.1,famous_female07.jpg
26,1,34,1,1,1,1,1,1341.17,famous_male05.jpg
26,1,35,2,2,4,4,1,881.29,famous_female12.jpg
26,1,36,2,1,1,1,1,1149.35,famous_male07.jpg
26,1,37,2,2,2,2,1,1025.43,famous_female17.jpg
26,1,38,2,2,4,0,0,0,famous_female15.jpg
26,1,39,2,1,4,4,1,1657.6,famous_male24.jpg
26,1,40,1,1,3,3,1,2389.69,famous_male06.jpg
26,1,41,1,1,2,2,1,881.78,famous_male09.jpg
26,1,42,2,1,4,4,1,1053.83,famous_male01.jpg
26,1,43,2,1,2,2,1,809.91,famous_male08.jpg
26,1,44,2,1,2,2,1,1614.05,famous_male17.jpg
26,1,45,1,1,3,3,1,1370.13,famous_male04.jpg
26,1,46,1,2,1,1,1,1494.21,famous_female05.jpg
26,1,47,2,2,1,1,1,1658.3,famous_female13.jpg
26,1,48,1,2,4,4,1,1358.41,famous_female09.jpg
27,2,1,2,1,3,3,1,2670.49,unknown_male11.jpg
27,2,2,1,1,4,4,1,802.58,unknown_male19.jpg
27,2,3,2,1,1,1,1,1214.7,unknown_male23.jpg
27,2,4,1,2,2,2,1,914.75,unknown_female09.jpg
27,2,5,2,1,1,1,1,1614.83,unknown_male16.jpg
27,2,6,2,1,3,3,1,1378.95,unknown_male14.jpg
27,2,7,2,1,4,4,1,1759,unknown_male10.jpg
27,2,8,1,2,3,3,1,1667.13,unknown_female12.jpg
27,2,9,1,1,4,4,1,1591.22,unknown_male06.jpg
27,2,10,1,2,4,4,1,1875.31,unknown_female10.jpg
27,2,11,1,1,2,2,1,2231.4,unknown_male18.jpg
27,2,12,2,2,4,4,1,1363.48,unknown_female19.jpg
27,2,13,2,2,2,2,1,1799.56,unknown_female13.jpg
27,2,14,1,1,3,3,1,1507.66,unknown_male22.jpg
27,2,15,2,1,3,3,1,1951.75,unknown_male15.jpg
27,2,16,1,1,2,2,1,1275.84,unknown_male17.jpg
27,2,17,2,2,4,4,1,1471.92,unknown_female07.jpg
27,2,18,2,2,1,1,1,1715.97,unknown_female24.jpg
27,2,19,2,2,3,3,1,1624.09,unknown_female22.jpg
27,2,20,2,2,3,3,1,1748.18,unknown_female15.jpg
27,2,21,2,1,4,4,1,1904.27,unknown_male12.jpg
27,2,22,1,2,2,2,1,1900.37,unknown_female01.jpg
27,2,23,1,1,2,2,1,2792.44,unknown_male20.jpg
27,2,24,1,2,4,4,1,1644.53,unknown_female06.jpg
27,2,25,2,1,2,2,1,1864.62,unknown_male07.jpg
27,2,26,2,1,1,1,1,2780.7,unknown_male05.jpg
27,2,27,2,2,3,3,1,1616.81,unknown_female08.jpg
27,2,28,2,2,2,2,1,972.87,unknown_female17.jpg
27,2,29,1,2,1,1,1,1864.96,unknown_female18.jpg
27,2,30,1,2,3,3,1,1981.05,unknown_female05.jpg
27,2,31,1,2,2,2,1,1465.14,unknown_female02.jpg
27,2,32,1,2,4,4,1,797.22,unknown_female14.jpg
27,2,33,2,1,2,2,1,1385.31,unknown_male21.jpg
27,2,34,2,2,4,4,1,2181.4,unknown_female03.jpg
27,2,35,1,1,3,3,1,2081.49,unknown_male03.jpg
27,2,36,1,1,1,1,1,1485.58,unknown_male09.jpg
27,2,37,1,1,1,1,1,1385.66,unknown_male04.jpg
27,2,38,2,1,4,4,1,1229.75,unknown_male02.jpg
27,2,39,1,2,1,1,1,1777.8,unknown_female04.jpg
27,2,40,1,1,3,3,1,1821.92,unknown_male13.jpg
27,2,41,1,1,1,1,1,2058.02,unknown_male01.jpg
27,2,42,2,1,2,2,1,2790.11,unknown_male24.jpg
27,2,43,1,2,1,1,1,1538.2,unknown_female11.jpg
27,2,44,2,2,1,1,1,2366.28,unknown_female16.jpg
27,2,45,2,2,2,2,1,1274.36,unknown_female20.jpg
27,2,46,2,2,1,1,1,2302.41,unknown_female21.jpg
27,2,47,1,2,3,3,1,2858.54,unknown_female23.jpg
27,2,48,1,1,4,4,1,2262.62,unknown_male08.jpg
28,1,1,1,2,1,1,1,534.25,famous_female24.jpg
28,1,2,2,2,4,4,1,1426.45,famous_female15.jpg
28,1,3,1,1,3,3,1,1110.54,famous_male01.jpg
28,1,4,1,1,4,4,1,802.64,famous_male13.jpg
28,1,5,2,2,1,1,1,702.73,famous_female01.jpg
28,1,6,1,1,1,1,1,554.8,famous_male20.jpg
28,1,7,2,2,3,3,1,750.9,famous_female02.jpg
28,1,8,2,1,3,3,1,674.99,famous_male12.jpg
28,1,9,1,2,3,3,1,711.07,famous_female11.jpg
28,1,10,2,1,4,4,1,715.14,famous_male09.jpg
28,1,11,2,1,1,1,1,959.23,famous_male16.jpg
28,1,12,2,2,3,3,1,827.32,famous_female04.jpg
28,1,13,2,1,4,4,1,807.42,famous_male06.jpg
28,1,14,1,2,1,1,1,883.5,famous_female13.jpg
28,1,15,2,2,2,2,1,943.61,famous_female03.jpg
28,1,16,2,2,3,3,1,939.65,famous_female16.jpg
28,1,17,2,1,2,2,1,975.77,famous_male19.jpg
28,1,18,2,1,3,3,1,691.89,famous_male05.jpg
28,1,19,1,1,2,2,1,687.94,famous_male08.jpg
28,1,20,2,2,4,4,1,852.02,famous_female18.jpg
28,1,21,1,1,1,1,1,952.11,famous_male14.jpg
28,1,22,1,2,2,2,1,876.2,famous_female23.jpg
28,1,23,2,2,2,2,1,808.3,famous_female05.jpg
28,1,24,1,2,4,4,1,740.36,famous_female20.jpg
28,1,25,1,1,3,3,1,736.46,famous_male03.jpg
28,1,26,1,1,3,3,1,764.55,famous_male21.jpg
28,1,27,1,2,4,4,1,792.64,famous_female12.jpg
28,1,28,1,1,2,2,1,820.72,famous_male22.jpg
28,1,29,2,2,1,1,1,920.79,famous_female09.jpg
28,1,30,2,1,1,1,1,636.92,famous_male17.jpg
28,1,31,1,1,4,4,1,905,famous_male04.jpg
28,1,32,1,2,3,3,1,749.08,famous_female08.jpg
28,1,33,2,1,2,2,1,641.15,famous_male24.jpg
28,1,34,1,1,4,4,1,645.25,famous_male07.jpg
28,1,35,2,1,3,3,1,961.28,famous_male02.jpg
28,1,36,1,1,2,2,1,837.42,famous_male11.jpg
28,1,37,1,2,3,3,1,641.45,famous_female06.jpg
28,1,38,2,2,4,4,1,581.59,famous_female17.jpg
28,1,39,1,1,1,1,1,697.68,famous_male10.jpg
28,1,40,2,2,1,1,1,701.79,famous_female19.jpg
28,1,41,2,2,2,2,1,865.86,famous_female07.jpg
28,1,42,2,1,4,4,1,653.96,famous_male15.jpg
28,1,43,1,2,2,2,1,754.03,famous_female22.jpg
28,1,44,1,2,2,2,1,430.12,famous_female14.jpg
28,1,45,1,2,4,4,1,674.22,famous_female21.jpg
28,1,46,2,1,2,2,1,782.31,famous_male23.jpg
28,1,47,2,1,1,1,1,786.38,famous_male18.jpg
28,1,48,1,2,1,1,1,486.48,famous_female10.jpg
29,2,1,2,2,1,1,1,1194.85,unknown_female22.jpg
29,2,2,1,2,3,3,1,966.87,unknown_female13.jpg
29,2,3,2,2,4,4,1,1218.95,unknown_female03.jpg
29,2,4,1,2,1,1,1,1087.06,unknown_female04.jpg
29,2,5,2,1,4,4,1,1051.16,unknown_male22.jpg
29,2,6,1,2,2,2,1,1047.25,unknown_female23.jpg
29,2,7,2,1,4,4,1,1051.31,unknown_male13.jpg
29,2,8,1,2,4,4,1,1135.43,unknown_female21.jpg
29,2,9,2,1,1,1,1,859.49,unknown_male02.jpg
29,2,10,1,2,3,3,1,831.6,unknown_female15.jpg
29,2,11,1,2,2,2,1,723.68,unknown_female14.jpg
29,2,12,1,2,3,3,1,759.79,unknown_female09.jpg
29,2,13,1,1,1,1,1,675.86,unknown_male12.jpg
29,2,14,2,2,1,1,1,775.91,unknown_female10.jpg
29,2,15,1,1,2,2,1,716.03,unknown_male23.jpg
29,2,16,1,1,4,4,1,832.13,unknown_male04.jpg
29,2,17,1,2,1,1,1,844.18,unknown_female08.jpg
29,2,18,2,1,2,2,1,896.29,unknown_male11.jpg
29,2,19,1,1,1,1,1,796.34,unknown_male21.jpg
29,2,20,2,1,3,3,1,840.47,unknown_male05.jpg
29,2,21,2,1,1,1,1,708.58,unknown_male14.jpg
29,2,22,1,2,2,2,1,640.65,unknown_female05.jpg
29,2,23,2,2,3,3,1,756.72,unknown_female24.jpg
29,2,24,1,2,4,4,1,664.81,unknown_female07.jpg
29,2,25,1,2,1,1,1,788.88,unknown_female06.jpg
29,2,26,2,1,3,3,1,768.99,unknown_male10.jpg
29,2,27,1,1,2,2,1,701.08,unknown_male19.jpg
29,2,28,1,2,4,4,1,833.14,unknown_female11.jpg
29,2,29,2,1,1,1,1,1005.24,unknown_male18.jpg
29,2,30,1,1,1,1,1,921.31,unknown_male03.jpg
29,2,31,1,1,2,2,1,605.43,unknown_male07.jpg
29,2,32,2,2,2,2,1,657.51,unknown_female02.jpg
29,2,33,1,1,3,3,1,741.54,unknown_male17.jpg
29,2,34,1,1,4,4,1,769.69,unknown_male06.jpg
29,2,35,2,2,3,3,1,725.77,unknown_female18.jpg
29,2,36,2,2,2,2,1,849.87,unknown_female16.jpg
29,2,37,1,1,4,4,1,733.96,unknown_male09.jpg
29,2,38,2,2,4,4,1,738.06,unknown_female17.jpg
29,2,39,2,1,3,3,1,702.13,unknown_male24.jpg
29,2,40,2,2,1,1,1,658.17,unknown_female01.jpg
29,2,41,2,1,2,2,1,598.31,unknown_male01.jpg
29,2,42,2,1,4,4,1,642.36,unknown_male16.jpg
29,2,43,2,1,2,2,1,758.48,unknown_male20.jpg
29,2,44,2,2,2,2,1,730.53,unknown_female19.jpg
29,2,45,1,1,3,3,1,742.62,unknown_male15.jpg
29,2,46,2,2,4,4,1,714.74,unknown_female20.jpg
29,2,47,2,2,3,3,1,838.82,unknown_female12.jpg
29,2,48,1,1,3,3,1,762.91,unknown_male08.jpg
30,1,1,2,1,3,3,1,1108.82,famous_male19.jpg
30,1,2,2,1,4,4,1,2408.89,famous_male22.jpg
30,1,3,1,1,2,2,1,1596.98,famous_male02.jpg
30,1,4,1,1,1,1,1,1377,famous_male01.jpg
30,1,5,1,1,1,1,1,1453.15,famous_male15.jpg
30,1,6,1,1,2,2,1,1113.21,famous_male13.jpg
30,1,7,2,1,2,2,1,1397.32,famous_male14.jpg
30,1,8,1,2,1,1,1,1265.43,famous_female07.jpg
30,1,9,1,1,3,3,1,877.52,famous_male21.jpg
30,1,10,1,2,1,1,1,873.55,famous_female15.jpg
30,1,11,1,1,4,4,1,957.68,famous_male07.jpg
30,1,12,1,2,4,4,1,1025.77,famous_female14.jpg
30,1,13,2,1,2,2,1,1597.85,famous_male12.jpg
30,1,14,2,2,1,1,1,1769.89,famous_female11.jpg
30,1,15,1,1,3,3,1,1486.04,famous_male09.jpg
30,1,16,2,1,1,1,1,1258.12,famous_male23.jpg
30,1,17,2,1,1,1,1,1422.23,famous_male08.jpg
30,1,18,2,2,4,4,1,1666.31,famous_female10.jpg
30,1,19,2,2,2,2,1,1382.39,famous_female03.jpg
30,1,20,2,1,4,4,1,1130.43,famous_male16.jpg
30,1,21,2,2,3,3,1,1478.52,famous_female17.jpg
30,1,22,2,2,3,3,1,1530.64,famous_female09.jpg
30,1,23,1,1,2,2,1,998.75,famous_male03.jpg
30,1,24,2,1,2,2,1,1682.83,famous_male05.jpg
30,1,25,2,2,2,2,1,1638.9,famous_female13.jpg
30,1,26,1,2,3,3,1,1235.01,famous_female24.jpg
30,1,27,2,2,2,2,1,1975.09,famous_female05.jpg
30,1,28,1,2,2,2,1,2035.13,famous_female06.jpg
30,1,29,2,1,4,4,1,2215.25,famous_male18.jpg
30,1,30,1,2,2,2,1,2051.34,famous_female02.jpg
30,1,31,2,2,4,4,1,2231.44,famous_female12.jpg
30,1,32,1,1,4,4,1,2083.51,famous_male11.jpg
30,1,33,2,2,4,4,1,2087.59,famous_female16.jpg
30,1,34,2,1,3,3,1,1307.68,famous_male20.jpg
30,1,35,2,2,1,1,1,2567.75,famous_female08.jpg
30,1,36,2,2,1,1,1,1571.86,famous_female22.jpg
30,1,37,2,1,3,3,1,1783.95,famous_male04.jpg
30,1,38,1,2,1,1,1,1796.03,famous_female20.jpg
30,1,39,1,2,3,3,1,1536.15,famous_female21.jpg
30,1,40,1,1,4,4,1,1644.21,famous_male06.jpg
30,1,41,1,2,4,4,1,1848.31,famous_female19.jpg
30,1,42,2,1,1,1,1,1708.35,famous_male17.jpg
30,1,43,2,2,3,3,1,1968.48,famous_female04.jpg
30,1,44,1,2,4,4,1,1548.56,famous_female01.jpg
30,1,45,1,2,2,2,1,1456.59,famous_female18.jpg
30,1,46,1,1,1,1,1,1708.74,famous_male10.jpg
30,1,47,1,2,3,3,1,1808.83,famous_female23.jpg
30,1,48,1,1,3,3,1,2020.9,famous_male24.jpg
31,2,1,2,1,1,1,1,938.95,unknown_male20.jpg
31,2,2,1,1,4,4,1,1263.1,unknown_male17.jpg
31,2,3,1,2,1,1,1,795.19,unknown_female18.jpg
31,2,4,1,2,4,4,1,935.18,unknown_female19.jpg
31,2,5,1,1,2,2,1,1091.38,unknown_male05.jpg
31,2,6,2,2,1,1,1,1231.41,unknown_female09.jpg
31,2,7,1,2,3,3,1,1139.53,unknown_female12.jpg
31,2,8,2,1,4,4,1,2135.64,unknown_male21.jpg
31,2,9,1,2,4,4,1,1699.71,unknown_female04.jpg
31,2,10,2,2,1,1,1,2399.81,unknown_female08.jpg
31,2,11,1,1,4,4,1,1467.9,unknown_male24.jpg
31,2,12,1,2,1,1,1,1343.97,unknown_female03.jpg
31,2,13,2,1,4,4,1,1060.06,unknown_male23.jpg
31,2,14,1,1,2,2,1,1352.16,unknown_male11.jpg
31,2,15,1,1,4,4,1,2060.24,unknown_male18.jpg
31,2,16,2,2,3,3,1,1960.33,unknown_female13.jpg
31,2,17,2,1,3,3,1,1772.38,unknown_male09.jpg
31,2,18,2,1,1,1,1,1736.52,unknown_male02.jpg
31,2,19,1,1,1,1,1,1732.54,unknown_male01.jpg
31,2,20,2,2,3,3,1,1912.69,unknown_female17.jpg
31,2,21,2,2,4,4,1,2732.76,unknown_female15.jpg
31,2,22,2,1,2,2,1,1072.8,unknown_male06.jpg
31,2,23,2,1,1,1,1,1540.95,unknown_male15.jpg
31,2,24,1,2,3,3,1,1729.05,unknown_female06.jpg
31,2,25,1,2,3,3,1,1117.11,unknown_female10.jpg
31,2,26,1,1,1,1,1,1321.2,unknown_male22.jpg
31,2,27,2,2,4,4,1,909.31,unknown_female07.jpg
31,2,28,1,2,4,4,1,1281.32,unknown_female14.jpg
31,2,29,2,1,3,3,1,1253.47,unknown_male07.jpg
31,2,30,2,1,2,2,1,1369.55,unknown_male12.jpg
31,2,31,2,1,2,2,1,1637.63,unknown_male16.jpg
31,2,32,2,2,3,3,1,1777.72,unknown_female05.jpg
31,2,33,1,2,2,2,1,1221.81,unknown_female01.jpg
31,2,34,2,1,4,4,1,1729.9,unknown_male14.jpg
31,2,35,1,1,3,3,1,1117.95,unknown_male08.jpg
31,2,36,2,2,2,2,1,1098.04,unknown_female20.jpg
31,2,37,1,1,3,3,1,702.15,unknown_male03.jpg
31,2,38,1,1,3,3,1,1266.19,unknown_male19.jpg
31,2,39,1,2,2,2,1,1278.34,unknown_female21.jpg
31,2,40,2,2,1,1,1,2426.43,unknown_female02.jpg
31,2,41,1,1,2,2,1,894.51,unknown_male10.jpg
31,2,42,2,2,2,2,1,1298.57,unknown_female22.jpg
31,2,43,2,1,3,3,1,958.69,unknown_male04.jpg
31,2,44,1,1,1,1,1,914.75,unknown_male13.jpg
31,2,45,1,2,2,2,1,1494.86,unknown_female16.jpg
31,2,46,1,2,1,1,1,1402.88,unknown_female11.jpg
31,2,47,2,2,4,4,1,1471.03,unknown_female23.jpg
31,2,48,2,2,2,2,1,2043.16,unknown_female24.jpg
32,1,1,2,2,4,4,1,1046.53,famous_female15.jpg
32,1,2,2,2,3,3,1,1146.66,famous_female19.jpg
32,1,3,2,2,2,2,1,1246.73,famous_female08.jpg
32,1,4,2,2,2,2,1,1482.81,famous_female09.jpg
32,1,5,2,1,4,4,1,1398.9,famous_male14.jpg
32,1,6,1,1,4,4,1,1251.01,famous_male09.jpg
32,1,7,2,1,1,1,1,1351.08,famous_male21.jpg
32,1,8,2,1,2,2,1,1291.17,famous_male12.jpg
32,1,9,2,1,4,4,1,1551.25,famous_male07.jpg
32,1,10,2,2,3,3,1,1491.34,famous_female23.jpg
32,1,11,1,1,3,3,1,1543.42,famous_male17.jpg
32,1,12,1,1,4,4,1,1259.53,famous_male19.jpg
32,1,13,2,2,4,2,0,327.63,famous_female03.jpg
32,1,14,2,1,2,2,1,2059.69,famous_male11.jpg
32,1,15,1,1,1,1,1,1039.72,famous_male05.jpg
32,1,16,2,1,3,3,1,1899.87,famous_male16.jpg
32,1,17,2,1,2,2,1,1655.98,famous_male13.jpg
32,1,18,1,2,2,2,1,2372.06,famous_female13.jpg
32,1,19,1,1,1,1,1,1688.03,famous_male22.jpg
32,1,20,1,2,3,3,1,1660.15,famous_female22.jpg
32,1,21,2,1,1,1,1,1384.3,famous_male06.jpg
32,1,22,2,2,1,1,1,2332.41,famous_female12.jpg
32,1,23,1,1,2,2,1,1424.47,famous_male24.jpg
32,1,24,2,1,3,3,1,1764.56,famous_male04.jpg
32,1,25,2,1,4,4,1,1352.59,famous_male20.jpg
32,1,26,1,2,1,1,1,1836.75,famous_female01.jpg
32,1,27,1,2,4,4,1,2128.82,famous_female05.jpg
32,1,28,1,2,4,4,1,1316.92,famous_female16.jpg
32,1,29,2,2,1,1,1,1664.99,famous_female21.jpg
32,1,30,1,2,3,3,1,1965.1,famous_female06.jpg
32,1,31,1,2,1,1,1,1497.18,famous_female14.jpg
32,1,32,1,1,3,3,1,2109.27,famous_male01.jpg
32,1,33,1,2,4,4,1,2729.39,famous_female10.jpg
32,1,34,1,2,2,2,1,661.43,famous_female11.jpg
32,1,35,1,1,3,3,1,1081.56,famous_male18.jpg
32,1,36,1,2,3,3,1,1533.64,famous_female04.jpg
32,1,37,2,2,4,4,1,1441.7,famous_female24.jpg
32,1,38,1,2,1,1,1,1037.85,famous_female20.jpg
32,1,39,1,1,2,2,1,769.89,famous_male23.jpg
32,1,40,1,1,2,2,1,1077.98,famous_male03.jpg
32,1,41,1,1,1,1,1,882.07,famous_male02.jpg
32,1,42,2,1,3,3,1,686.13,famous_male10.jpg
32,1,43,2,2,3,3,1,1210.24,famous_female18.jpg
32,1,44,2,2,1,1,1,1294.31,famous_female07.jpg
32,1,45,2,2,2,2,1,1338.4,famous_female02.jpg
32,1,46,1,1,4,4,1,1086.49,famous_male15.jpg
32,1,47,1,2,2,2,1,1522.59,famous_female17.jpg
32,1,48,2,1,1,1,1,1278.66,famous_male08.jpg
33,2,1,2,1,2,2,1,533.74,unknown_male16.jpg
33,2,2,2,1,1,1,1,593.9,unknown_male24.jpg
33,2,3,1,1,1,1,1,709.98,unknown_male15.jpg
33,2,4,1,2,4,4,1,698.07,unknown_female07.jpg
33,2,5,2,2,3,3,1,662.16,unknown_female22.jpg
33,2,6,2,2,4,4,1,722.25,unknown_female10.jpg
33,2,7,2,2,2,2,1,678.33,unknown_female20.jpg
33,2,8,1,2,4,4,1,730.43,unknown_female08.jpg
33,2,9,1,1,3,3,1,710.52,unknown_male12.jpg
33,2,10,1,2,3,3,1,698.6,unknown_female24.jpg
33,2,11,1,1,2,2,1,870.68,unknown_male01.jpg
33,2,12,1,2,2,2,1,810.78,unknown_female17.jpg
33,2,13,2,1,1,1,1,886.85,unknown_male13.jpg
33,2,14,1,2,2,2,1,802.91,unknown_female02.jpg
33,2,15,1,2,3,3,1,775.03,unknown_female06.jpg
33,2,16,1,2,1,1,1,1163.13,unknown_female13.jpg
33,2,17,1,1,2,2,1,1239.21,unknown_male18.jpg
33,2,18,2,1,1,1,1,955.31,unknown_male08.jpg
33,2,19,2,2,4,4,1,951.42,unknown_female12.jpg
33,2,20,1,1,4,4,1,1003.42,unknown_male17.jpg
33,2,21,2,1,4,4,1,1215.56,unknown_male23.jpg
33,2,22,2,2,2,2,1,1171.65,unknown_female18.jpg
33,2,23,1,1,2,2,1,1047.73,unknown_male03.jpg
33,2,24,1,1,3,3,1,1115.82,unknown_male22.jpg
33,2,25,1,2,4,4,1,999.91,unknown_female16.jpg
33,2,26,2,1,3,3,1,988,unknown_male11.jpg
33,2,27,2,1,2,2,1,792.06,unknown_male10.jpg
33,2,28,2,1,4,4,1,1148.18,unknown_male02.jpg
33,2,29,2,2,1,1,1,1056.26,unknown_female14.jpg
33,2,30,2,2,1,1,1,1156.35,unknown_female23.jpg
33,2,31,1,1,1,1,1,960.43,unknown_male21.jpg
33,2,32,1,2,2,2,1,1020.52,unknown_female15.jpg
33,2,33,1,2,1,1,1,896.6,unknown_female04.jpg
33,2,34,1,1,3,3,1,836.7,unknown_male09.jpg
33,2,35,1,2,3,3,1,760.78,unknown_female01.jpg
33,2,36,1,1,4,4,1,660.87,unknown_male14.jpg
33,2,37,2,2,4,4,1,1024.95,unknown_female05.jpg
33,2,38,1,1,1,1,1,1117.05,unknown_male06.jpg
33,2,39,2,1,3,3,1,1137.13,unknown_male07.jpg
33,2,40,2,1,4,4,1,949.22,unknown_male19.jpg
33,2,41,1,2,1,1,1,841.3,unknown_female11.jpg
33,2,42,2,2,3,3,1,1285.4,unknown_female09.jpg
33,2,43,1,1,4,4,1,1345.47,unknown_male04.jpg
33,2,44,2,1,2,2,1,1357.6,unknown_male20.jpg
33,2,45,2,2,2,2,1,1521.59,unknown_female19.jpg
33,2,46,2,2,3,3,1,1981.75,unknown_female21.jpg
33,2,47,2,1,3,3,1,1625.83,unknown_male05.jpg
33,2,48,2,2,1,1,1,1381.92,unknown_female03.jpg
34,1,1,1,1,3,3,1,733.51,famous_male02.jpg
34,1,2,1,1,2,2,1,825.57,famous_male16.jpg
34,1,3,2,1,3,3,1,789.66,famous_male23.jpg
34,1,4,1,1,2,2,1,657.75,famous_male03.jpg
34,1,5,1,2,3,3,1,685.85,famous_female03.jpg
34,1,6,2,2,4,4,1,1041.93,famous_female20.jpg
34,1,7,2,1,4,4,1,1046.02,famous_male09.jpg
34,1,8,2,2,2,2,1,938.12,famous_female19.jpg
34,1,9,2,2,3,3,1,838.21,famous_female08.jpg
34,1,10,2,2,2,2,1,730.29,famous_female22.jpg
34,1,11,1,1,4,4,1,710.37,famous_male21.jpg
34,1,12,1,2,2,2,1,690.46,famous_female02.jpg
34,1,13,2,1,4,4,1,630.56,famous_male10.jpg
34,1,14,1,2,4,4,1,834.63,famous_female04.jpg
34,1,15,2,2,1,1,1,910.72,famous_female05.jpg
34,1,16,2,2,4,4,1,1194.76,famous_female12.jpg
34,1,17,1,2,1,1,1,958.89,famous_female18.jpg
34,1,18,2,2,3,3,1,1042.99,famous_female23.jpg
34,1,19,2,2,1,1,1,791.08,famous_female15.jpg
34,1,20,1,1,4,4,1,803.17,famous_male05.jpg
34,1,21,2,1,1,1,1,783.24,famous_male08.jpg
34,1,22,1,1,3,3,1,739.24,famous_male06.jpg
34,1,23,2,2,1,1,1,1183.42,famous_female10.jpg
34,1,24,1,2,2,2,1,755.52,famous_female16.jpg
34,1,25,2,1,2,2,1,839.58,famous_male19.jpg
34,1,26,1,1,2,2,1,779.67,famous_male13.jpg
34,1,27,1,2,1,1,1,791.7,famous_female09.jpg
34,1,28,1,2,2,2,1,739.85,famous_female24.jpg
34,1,29,1,1,1,1,1,1143.95,famous_male22.jpg
34,1,30,2,2,3,3,1,899.99,famous_female14.jpg
34,1,31,1,2,4,4,1,824.11,famous_female07.jpg
34,1,32,2,1,3,3,1,860.19,famous_male18.jpg
34,1,33,2,2,2,2,1,616.29,famous_female17.jpg
34,1,34,2,1,4,4,1,748.37,famous_male12.jpg
34,1,35,2,1,1,1,1,920.46,famous_male20.jpg
34,1,36,1,1,1,1,1,516.54,famous_male07.jpg
34,1,37,2,1,2,2,1,760.6,famous_male17.jpg
34,1,38,1,2,3,3,1,748.72,famous_female13.jpg
34,1,39,1,1,1,1,1,808.81,famous_male15.jpg
34,1,40,1,1,3,3,1,820.88,famous_male11.jpg
34,1,41,1,2,1,1,1,336.93,famous_female11.jpg
34,1,42,2,2,4,4,1,813.07,famous_female06.jpg
34,1,43,2,1,1,1,1,1025.16,famous_male24.jpg
34,1,44,1,2,4,4,1,733.24,famous_female01.jpg
34,1,45,2,1,3,3,1,577.33,famous_male04.jpg
34,1,46,2,1,2,2,1,1005.41,famous_male01.jpg
34,1,47,1,1,4,4,1,841.51,famous_male14.jpg
34,1,48,1,2,3,3,1,533.6,famous_female21.jpg
35,2,1,2,1,3,3,1,827.99,unknown_male11.jpg
35,2,2,2,2,3,3,1,744.13,unknown_female06.jpg
35,2,3,2,1,3,3,1,708.18,unknown_male17.jpg
35,2,4,2,1,1,1,1,760.29,unknown_male18.jpg
35,2,5,1,2,2,2,1,732.38,unknown_female07.jpg
35,2,6,1,2,4,4,1,944.47,unknown_female16.jpg
35,2,7,1,1,2,2,1,908.56,unknown_male23.jpg
35,2,8,2,1,4,4,1,1136.65,unknown_male19.jpg
35,2,9,2,2,1,1,1,1140.68,unknown_female18.jpg
35,2,10,1,1,4,4,1,1216.82,unknown_male05.jpg
35,2,11,1,2,2,2,1,1180.91,unknown_female01.jpg
35,2,12,2,1,2,2,1,896.97,unknown_male04.jpg
35,2,13,2,2,4,4,1,1141.08,unknown_female24.jpg
35,2,14,2,1,2,2,1,761.17,unknown_male09.jpg
35,2,15,1,1,4,4,1,933.23,unknown_male21.jpg
35,2,16,1,1,3,3,1,777.35,unknown_male06.jpg
35,2,17,2,1,2,2,1,605.4,unknown_male03.jpg
35,2,18,2,2,2,2,1,977.52,unknown_female15.jpg
35,2,19,1,2,3,3,1,821.6,unknown_female03.jpg
35,2,20,1,2,1,1,1,953.69,unknown_female09.jpg
35,2,21,2,2,3,3,1,829.78,unknown_female22.jpg
35,2,22,2,2,3,3,1,1017.88,unknown_female11.jpg
35,2,23,1,2,2,2,1,893.96,unknown_female17.jpg
35,2,24,1,1,3,3,1,930.05,unknown_male24.jpg
35,2,25,1,2,1,1,1,870.13,unknown_female08.jpg
35,2,26,1,2,4,4,1,858.22,unknown_female19.jpg
35,2,27,2,2,2,2,1,726.3,unknown_female20.jpg
35,2,28,1,2,1,1,1,618.35,unknown_female02.jpg
35,2,29,2,1,1,1,1,694.47,unknown_male22.jpg
35,2,30,2,2,1,1,1,1098.54,unknown_female05.jpg
35,2,31,1,1,1,1,1,958.65,unknown_male14.jpg
35,2,32,2,1,1,1,1,1162.74,unknown_male08.jpg
35,2,33,2,2,1,1,1,790.83,unknown_female21.jpg
35,2,34,1,1,2,2,1,898.92,unknown_male10.jpg
35,2,35,1,1,1,1,1,831,unknown_male20.jpg
35,2,36,2,2,4,4,1,1059.11,unknown_female13.jpg
35,2,37,2,1,3,3,1,959.19,unknown_male13.jpg
35,2,38,1,2,3,3,1,827.27,unknown_female04.jpg
35,2,39,2,2,4,4,1,959.32,unknown_female23.jpg
35,2,40,1,1,1,1,1,891.45,unknown_male16.jpg
35,2,41,1,1,4,4,1,1079.48,unknown_male02.jpg
35,2,42,1,1,2,2,1,675.61,unknown_male07.jpg
35,2,43,1,1,3,3,1,759.71,unknown_male15.jpg
35,2,44,1,2,3,3,1,739.8,unknown_female10.jpg
35,2,45,2,2,2,2,1,631.87,unknown_female14.jpg
35,2,46,2,1,4,4,1,795.98,unknown_male12.jpg
35,2,47,1,2,4,4,1,1136.06,unknown_female12.jpg
35,2,48,2,1,4,4,1,916.09,unknown_male01.jpg
36,1,1,2,2,3,3,1,1046.47,famous_female10.jpg
36,1,2,2,1,1,1,1,602.62,famous_male12.jpg
36,1,3,2,2,1,1,1,430.7,famous_female03.jpg
36,1,4,1,1,4,4,1,922.79,famous_male15.jpg
36,1,5,1,1,2,2,1,582.89,famous_male02.jpg
36,1,6,2,1,4,4,1,714.96,famous_male20.jpg
36,1,7,1,1,1,1,1,591.06,famous_male08.jpg
36,1,8,2,2,1,1,1,459.15,famous_female06.jpg
36,1,9,2,1,4,4,1,631.2,famous_male14.jpg
36,1,10,2,1,3,3,1,763.27,famous_male05.jpg
36,1,11,2,1,1,1,1,495.41,famous_male19.jpg
36,1,12,1,2,3,3,1,531.49,famous_female13.jpg
36,1,13,1,1,1,1,1,439.58,famous_male16.jpg
36,1,14,1,2,1,1,1,723.68,famous_female21.jpg
36,1,15,1,2,1,1,1,735.76,famous_female12.jpg
36,1,16,2,2,2,2,1,603.85,famous_female11.jpg
36,1,17,1,2,4,4,1,927.92,famous_female18.jpg
36,1,18,1,2,4,4,1,1124.02,famous_female19.jpg
36,1,19,1,1,2,2,1,720.12,famous_male01.jpg
36,1,20,1,1,4,4,1,820.2,famous_male03.jpg
36,1,21,1,2,1,1,1,488.28,famous_female15.jpg
36,1,22,2,1,1,1,1,436.38,famous_male06.jpg
36,1,23,1,1,3,3,1,720.45,famous_male04.jpg
36,1,24,2,2,4,4,1,604.54,famous_female16.jpg
36,1,25,1,2,2,2,1,1176.58,famous_female08.jpg
36,1,26,2,1,4,4,1,556.72,famous_male17.jpg
36,1,27,2,2,3,3,1,816.81,famous_female05.jpg
36,1,28,1,2,3,3,1,748.9,famous_female23.jpg
36,1,29,2,2,2,2,1,776.98,famous_female24.jpg
36,1,30,1,2,2,2,1,493.07,famous_female02.jpg
36,1,31,2,2,3,3,1,745.11,famous_female07.jpg
36,1,32,2,1,2,2,1,957.24,famous_male23.jpg
36,1,33,2,1,2,2,1,889.33,famous_male24.jpg
36,1,34,1,2,4,4,1,757.42,famous_female20.jpg
36,1,35,1,1,4,4,1,489.52,famous_male07.jpg
36,1,36,2,1,3,3,1,645.59,famous_male22.jpg
36,1,37,2,2,1,1,1,1561.68,famous_female09.jpg
36,1,38,2,1,2,2,1,437.77,famous_male10.jpg
36,1,39,2,2,2,2,1,497.84,famous_female04.jpg
36,1,40,1,1,3,3,1,557.95,famous_male09.jpg
36,1,41,2,2,4,4,1,506.02,famous_female22.jpg
36,1,42,1,1,3,3,1,406.12,famous_male13.jpg
36,1,43,2,2,4,4,1,498.2,famous_female01.jpg
36,1,44,1,1,1,1,1,454.29,famous_male18.jpg
36,1,45,1,1,2,2,1,370.38,famous_male11.jpg
36,1,46,2,1,3,3,1,558.47,famous_male21.jpg
36,1,47,1,2,3,3,1,474.55,famous_female17.jpg
36,1,48,1,2,2,2,1,350.52,famous_female14.jpg
37,2,1,1,2,1,1,1,902.04,unknown_female23.jpg
37,2,2,1,2,1,1,1,922.11,unknown_female17.jpg
37,2,3,1,2,2,2,1,942.26,unknown_female19.jpg
37,2,4,2,1,4,4,1,1218.35,unknown_male13.jpg
37,2,5,2,1,3,3,1,1358.43,unknown_male06.jpg
37,2,6,2,2,3,3,1,1538.53,unknown_female16.jpg
37,2,7,1,2,4,4,1,1342.61,unknown_female02.jpg
37,2,8,1,1,2,2,1,1250.65,unknown_male01.jpg
37,2,9,1,2,2,2,1,1302.74,unknown_female08.jpg
37,2,10,2,1,1,1,1,1474.91,unknown_male12.jpg
37,2,11,1,1,2,2,1,1358.96,unknown_male04.jpg
37,2,12,1,2,4,4,1,1066.98,unknown_female14.jpg
37,2,13,2,1,1,1,1,1399.13,unknown_male02.jpg
37,2,14,1,1,1,1,1,1283.23,unknown_male19.jpg
37,2,15,2,2,4,4,1,1407.24,unknown_female10.jpg
37,2,16,2,1,2,2,1,2267.39,unknown_male03.jpg
37,2,17,1,1,2,2,1,1303.49,unknown_male10.jpg
37,2,18,2,1,2,2,1,1595.57,unknown_male16.jpg
37,2,19,1,1,4,4,1,1343.65,unknown_male11.jpg
37,2,20,1,2,2,2,1,1699.75,unknown_female24.jpg
37,2,21,2,2,1,1,1,1775.85,unknown_female09.jpg
37,2,22,1,1,3,3,1,1651.92,unknown_male07.jpg
37,2,23,2,2,4,4,1,1656.01,unknown_female20.jpg
37,2,24,2,1,3,3,1,2332.1,unknown_male14.jpg
37,2,25,2,1,1,1,1,2392.18,unknown_male08.jpg
37,2,26,2,2,4,4,1,2588.27,unknown_female11.jpg
37,2,27,1,2,1,1,1,1112.33,unknown_female01.jpg
37,2,28,2,1,3,3,1,1036.45,unknown_male05.jpg
37,2,29,1,1,3,3,1,1112.53,unknown_male24.jpg
37,2,30,1,2,3,3,1,1236.62,unknown_female18.jpg
37,2,31,1,1,4,4,1,1112.71,unknown_male09.jpg
37,2,32,2,2,2,2,1,1300.8,unknown_female05.jpg
37,2,33,1,1,3,3,1,1216.81,unknown_male20.jpg
37,2,34,2,2,2,2,1,932.96,unknown_female21.jpg
37,2,35,2,2,1,1,1,1817.01,unknown_female13.jpg
37,2,36,2,2,3,3,1,2269.04,unknown_female04.jpg
37,2,37,2,2,3,3,1,2153.22,unknown_female07.jpg
37,2,38,1,1,1,1,1,1501.32,unknown_male23.jpg
37,2,39,2,1,2,2,1,1649.41,unknown_male22.jpg
37,2,40,1,2,3,3,1,1309.5,unknown_female15.jpg
37,2,41,1,1,1,1,1,1457.58,unknown_male21.jpg
37,2,42,1,1,4,4,1,1429.67,unknown_male15.jpg
37,2,43,1,2,4,4,1,1097.78,unknown_female06.jpg
37,2,44,2,2,1,1,1,1621.86,unknown_female03.jpg
37,2,45,2,1,4,4,1,1545.86,unknown_male18.jpg
37,2,46,2,1,4,4,1,1398.03,unknown_male17.jpg
37,2,47,1,2,3,3,1,1074.1,unknown_female22.jpg
37,2,48,2,2,2,2,1,1238.16,unknown_female12.jpg
38,1,1,2,1,1,1,1,1923.4,famous_male04.jpg
38,1,2,2,2,4,4,1,1279.57,famous_female24.jpg
38,1,3,1,1,3,3,1,1131.64,famous_male01.jpg
38,1,4,1,1,1,1,1,3119.72,famous_male09.jpg
38,1,5,1,2,1,1,1,947.81,famous_female21.jpg
38,1,6,2,2,2,2,1,1847.92,famous_female12.jpg
38,1,7,2,1,4,4,1,956,famous_male15.jpg
38,1,8,1,2,3,3,1,1048.07,famous_female15.jpg
38,1,9,1,2,1,1,1,1252.17,famous_female06.jpg
38,1,10,1,1,2,2,1,2048.26,famous_male24.jpg
38,1,11,2,2,1,1,1,1828.35,famous_female17.jpg
38,1,12,2,1,3,3,1,952.42,famous_male18.jpg
38,1,13,1,1,4,4,1,1108.52,famous_male03.jpg
38,1,14,2,2,2,2,1,1992.62,famous_female09.jpg
38,1,15,2,2,2,2,1,2540.7,famous_female19.jpg
38,1,16,2,1,1,1,1,2032.77,famous_male20.jpg
38,1,17,2,2,1,1,1,1652.87,famous_female10.jpg
38,1,18,1,2,2,2,1,1040.92,famous_female03.jpg
38,1,19,1,1,1,1,1,892.98,famous_male14.jpg
38,1,20,1,1,1,1,1,689.12,famous_male05.jpg
38,1,21,1,2,4,4,1,829.21,famous_female05.jpg
38,1,22,2,1,4,4,1,761.33,famous_male02.jpg
38,1,23,1,1,4,4,1,973.42,famous_male21.jpg
38,1,24,1,2,4,4,1,1225.47,famous_female08.jpg
38,1,25,1,1,2,2,1,1341.56,famous_male22.jpg
38,1,26,1,1,4,4,1,849.65,famous_male08.jpg
38,1,27,2,1,2,2,1,1981.73,famous_male13.jpg
38,1,28,2,1,3,3,1,1825.83,famous_male06.jpg
38,1,29,1,2,2,2,1,1229.9,famous_female20.jpg
38,1,30,1,2,4,4,1,922.03,famous_female11.jpg
38,1,31,1,1,3,3,1,806.07,famous_male19.jpg
38,1,32,1,2,2,2,1,1002.18,famous_female01.jpg
38,1,33,1,2,1,1,1,1622.26,famous_female13.jpg
38,1,34,2,2,3,3,1,1130.37,famous_female22.jpg
38,1,35,2,1,3,3,1,878.45,famous_male12.jpg
38,1,36,2,1,4,4,1,1058.52,famous_male11.jpg
38,1,37,2,2,3,3,1,1326.64,famous_female18.jpg
38,1,38,2,2,4,4,1,922.7,famous_female04.jpg
38,1,39,1,1,2,2,1,950.79,famous_male10.jpg
38,1,40,2,2,3,3,1,1154.87,famous_female23.jpg
38,1,41,1,1,3,3,1,830.95,famous_male23.jpg
38,1,42,2,1,2,2,1,1099.04,famous_male17.jpg
38,1,43,2,1,2,2,1,983.13,famous_male07.jpg
38,1,44,2,1,1,1,1,1059.22,famous_male16.jpg
38,1,45,2,2,4,4,1,1183.31,famous_female02.jpg
38,1,46,2,2,1,1,1,1107.41,famous_female07.jpg
38,1,47,1,2,3,3,1,823.48,famous_female16.jpg
38,1,48,1,2,3,3,1,747.57,famous_female14.jpg
39,2,1,1,2,1,1,1,1142.09,unknown_female23.jpg
39,2,2,2,2,2,2,1,1042.25,unknown_female08.jpg
39,2,3,2,1,4,4,1,1158.33,unknown_male09.jpg
39,2,4,2,1,3,3,1,1074.41,unknown_male16.jpg
39,2,5,1,2,1,1,1,982.51,unknown_female22.jpg
39,2,6,2,2,4,4,1,1258.59,unknown_female11.jpg
39,2,7,1,2,4,4,1,982.68,unknown_female21.jpg
39,2,8,1,1,2,2,1,1082.77,unknown_male12.jpg
39,2,9,1,1,1,1,1,1062.85,unknown_male15.jpg
39,2,10,1,2,3,3,1,1042.95,unknown_female12.jpg
39,2,11,2,2,3,3,1,1103.03,unknown_female17.jpg
39,2,12,1,1,3,3,1,1051.12,unknown_male18.jpg
39,2,13,1,1,2,2,1,1223.2,unknown_male08.jpg
39,2,14,2,2,4,4,1,1187.23,unknown_female04.jpg
39,2,15,2,1,3,3,1,1279.39,unknown_male22.jpg
39,2,16,1,1,3,3,1,1259.43,unknown_male10.jpg
39,2,17,2,1,1,1,1,1447.52,unknown_male14.jpg
39,2,18,1,1,3,3,1,1331.64,unknown_male07.jpg
39,2,19,2,1,4,4,1,1183.74,unknown_male05.jpg
39,2,20,1,2,4,4,1,1299.83,unknown_female15.jpg
39,2,21,1,2,2,2,1,1231.87,unknown_female13.jpg
39,2,22,2,1,2,2,1,1443.96,unknown_male23.jpg
39,2,23,2,1,3,3,1,1024.07,unknown_male17.jpg
39,2,24,2,2,1,1,1,1084.17,unknown_female19.jpg
39,2,25,2,1,2,2,1,1240.26,unknown_male06.jpg
39,2,26,1,2,2,2,1,1292.27,unknown_female07.jpg
39,2,27,1,1,4,4,1,1192.43,unknown_male02.jpg
39,2,28,1,1,4,4,1,988.54,unknown_male03.jpg
39,2,29,1,2,4,4,1,1288.61,unknown_female05.jpg
39,2,30,1,2,1,1,1,1156.69,unknown_female02.jpg
39,2,31,2,2,1,1,1,1344.77,unknown_female10.jpg
39,2,32,1,1,2,2,1,1308.83,unknown_male24.jpg
39,2,33,2,1,1,1,1,1800.95,unknown_male21.jpg
39,2,34,2,2,4,4,1,1812.98,unknown_female24.jpg
39,2,35,2,1,4,4,1,2361.12,unknown_male13.jpg
39,2,36,2,1,2,2,1,1325.21,unknown_male20.jpg
39,2,37,2,2,2,2,1,1857.24,unknown_female09.jpg
39,2,38,1,1,4,4,1,1466.83,unknown_male19.jpg
39,2,39,2,2,1,1,1,1654.99,unknown_female16.jpg
39,2,40,1,2,2,2,1,1483.09,unknown_female06.jpg
39,2,41,1,2,3,3,1,1375.2,unknown_female01.jpg
39,2,42,1,2,3,3,1,1347.22,unknown_female03.jpg
39,2,43,2,2,3,3,1,1311.34,unknown_female18.jpg
39,2,44,1,1,1,1,1,1547.42,unknown_male04.jpg
39,2,45,2,2,3,3,1,1479.52,unknown_female20.jpg
39,2,46,2,1,1,1,1,1427.88,unknown_male11.jpg
39,2,47,2,2,2,2,1,2151.94,unknown_female14.jpg
39,2,48,1,1,1,1,1,1956.1,unknown_male01.jpg
40,1,1,2,1,2,0,0,0,famous_male20.jpg
40,1,2,1,1,4,4,1,2148.43,famous_male19.jpg
40,1,3,1,1,3,3,1,600.52,famous_male04.jpg
40,1,4,2,2,3,3,1,1124.54,famous_female03.jpg
40,1,5,2,1,1,1,1,744.7,famous_male06.jpg
40,1,6,2,1,1,1,1,1372.81,famous_male16.jpg
40,1,7,1,2,1,1,1,1336.86,famous_female22.jpg
40,1,8,1,2,3,3,1,1516.96,famous_female01.jpg
40,1,9,2,2,1,1,1,953.05,famous_female19.jpg
40,1,10,1,2,3,3,1,1509.13,famous_female15.jpg
40,1,11,1,1,2,2,1,1369.22,famous_male11.jpg
40,1,12,1,1,3,3,1,1053.3,famous_male05.jpg
40,1,13,2,1,2,2,1,1121.36,famous_male10.jpg
40,1,14,1,2,2,2,1,733.48,famous_female16.jpg
40,1,15,1,1,2,2,1,1305.6,famous_male21.jpg
40,1,16,2,2,1,1,1,1509.64,famous_female13.jpg
40,1,17,2,2,2,2,1,929.75,famous_female20.jpg
40,1,18,2,2,2,2,1,805.83,famous_female07.jpg
40,1,19,1,1,1,1,1,697.85,famous_male18.jpg
40,1,20,1,1,2,2,1,798.03,famous_male15.jpg
40,1,21,1,2,4,4,1,1858.09,famous_female17.jpg
40,1,22,2,2,4,4,1,2854.19,famous_female04.jpg
40,1,23,2,2,1,1,1,978.28,famous_female10.jpg
40,1,24,2,1,4,4,1,694.36,famous_male24.jpg
40,1,25,1,2,1,1,1,706.44,famous_female14.jpg
40,1,26,1,2,3,3,1,510.54,famous_female24.jpg
40,1,27,1,2,1,1,1,642.64,famous_female09.jpg
40,1,28,1,1,1,1,1,814.74,famous_male13.jpg
40,1,29,2,1,1,1,1,834.82,famous_male03.jpg
40,1,30,2,2,2,2,1,790.87,famous_female12.jpg
40,1,31,1,1,4,4,1,1418.95,famous_male14.jpg
40,1,32,2,2,4,4,1,2151.05,famous_female06.jpg
40,1,33,1,2,2,2,1,899.17,famous_female11.jpg
40,1,34,1,2,4,4,1,1431.24,famous_female02.jpg
40,1,35,1,2,4,4,1,899.32,famous_female08.jpg
40,1,36,2,1,2,2,1,1023.4,famous_male12.jpg
40,1,37,1,2,2,2,1,747.53,famous_female18.jpg
40,1,38,1,1,4,4,1,1127.57,famous_male17.jpg
40,1,39,2,1,4,4,1,803.66,famous_male07.jpg
40,1,40,2,1,3,3,1,807.75,famous_male02.jpg
40,1,41,2,2,3,3,1,1571.85,famous_female05.jpg
40,1,42,2,1,3,3,1,535.88,famous_male08.jpg
40,1,43,2,2,3,3,1,428.02,famous_female21.jpg
40,1,44,2,2,4,4,1,472.09,famous_female23.jpg
40,1,45,1,1,3,3,1,564.18,famous_male22.jpg
40,1,46,2,1,4,4,1,560.23,famous_male09.jpg
40,1,47,1,1,1,1,1,780.36,famous_male23.jpg
40,1,48,2,1,3,3,1,1232.42,famous_male01.jpg
41,2,1,2,2,1,1,1,1813.11,unknown_female24.jpg
41,2,2,1,1,2,2,1,889.26,unknown_male05.jpg
41,2,3,1,2,1,1,1,917.34,unknown_female06.jpg
41,2,4,2,2,4,4,1,913.47,unknown_female14.jpg
41,2,5,1,1,2,2,1,741.52,unknown_male06.jpg
41,2,6,2,1,2,2,1,849.61,unknown_male14.jpg
41,2,7,1,1,2,2,1,749.65,unknown_male03.jpg
41,2,8,2,1,4,4,1,1465.78,unknown_male02.jpg
41,2,9,1,2,4,4,1,1093.86,unknown_female13.jpg
41,2,10,1,1,1,1,1,1305.95,unknown_male13.jpg
41,2,11,1,2,2,2,1,982.04,unknown_female02.jpg
41,2,12,1,1,1,1,1,978.14,unknown_male01.jpg
41,2,13,2,1,1,1,1,518.17,unknown_male18.jpg
41,2,14,1,1,4,4,1,2074.27,unknown_male22.jpg
41,2,15,2,1,3,3,1,1422.34,unknown_male09.jpg
41,2,16,2,2,3,3,1,970.48,unknown_female03.jpg
41,2,17,1,2,2,2,1,750.54,unknown_female05.jpg
41,2,18,2,2,1,1,1,810.66,unknown_female08.jpg
41,2,19,2,2,2,2,1,2030.74,unknown_female17.jpg
41,2,20,2,2,2,2,1,2034.79,unknown_female01.jpg
41,2,21,1,2,1,1,1,1054.95,unknown_female10.jpg
41,2,22,2,2,1,1,1,3003.02,unknown_female07.jpg
41,2,23,2,2,3,3,1,791.08,unknown_female16.jpg
41,2,24,1,2,3,3,1,1491.11,unknown_female19.jpg
41,2,25,1,1,3,3,1,967.26,unknown_male07.jpg
41,2,26,2,2,4,4,1,1059.35,unknown_female21.jpg
41,2,27,2,2,2,2,1,1479.44,unknown_female09.jpg
41,2,28,2,1,1,1,1,1043.52,unknown_male16.jpg
41,2,29,2,1,4,4,1,1479.57,unknown_male12.jpg
41,2,30,1,1,3,3,1,1219.69,unknown_male11.jpg
41,2,31,2,1,1,1,1,791.8,unknown_male19.jpg
41,2,32,2,1,3,3,1,659.89,unknown_male10.jpg
41,2,33,1,2,1,1,1,1007.95,unknown_female22.jpg
41,2,34,1,2,2,2,1,1108.02,unknown_female04.jpg
41,2,35,1,2,4,4,1,696.14,unknown_female12.jpg
41,2,36,1,1,1,1,1,876.22,unknown_male15.jpg
41,2,37,1,1,4,4,1,1144.28,unknown_male20.jpg
41,2,38,2,1,2,4,0,2172.39,unknown_male08.jpg
41,2,39,2,2,4,4,1,888.49,unknown_female20.jpg
41,2,40,1,1,3,3,1,748.57,unknown_male24.jpg
41,2,41,2,1,3,3,1,944.65,unknown_male17.jpg
41,2,42,2,2,3,3,1,516.76,unknown_female18.jpg
41,2,43,2,1,4,4,1,608.84,unknown_male21.jpg
41,2,44,1,1,4,4,1,404.88,unknown_male23.jpg
41,2,45,1,2,3,3,1,625.01,unknown_female15.jpg
41,2,46,2,1,2,2,1,749.1,unknown_male04.jpg
41,2,47,1,2,3,3,1,1065.2,unknown_female23.jpg
41,2,48,1,2,4,4,1,589.27,unknown_female11.jpg
42,1,1,1,1,2,2,1,562.28,famous_male10.jpg
42,1,2,1,2,1,1,1,734.43,famous_female23.jpg
42,1,3,1,2,2,2,1,906.52,famous_female15.jpg
42,1,4,2,2,3,3,1,1094.61,famous_female07.jpg
42,1,5,2,1,2,2,1,802.68,famous_male20.jpg
42,1,6,2,1,1,1,1,765.93,famous_male15.jpg
42,1,7,2,2,3,3,1,786.08,famous_female13.jpg
42,1,8,1,2,4,4,1,798.25,famous_female06.jpg
42,1,9,2,2,4,4,1,658.29,famous_female17.jpg
42,1,10,2,1,3,3,1,582.44,famous_male09.jpg
42,1,11,1,2,4,4,1,530.53,famous_female22.jpg
42,1,12,1,1,4,4,1,582.61,famous_male01.jpg
42,1,13,1,2,4,4,1,594.65,famous_female04.jpg
42,1,14,2,2,2,2,1,1158.75,famous_female08.jpg
42,1,15,1,1,3,3,1,450.76,famous_male21.jpg
42,1,16,2,2,1,1,1,726.92,famous_female20.jpg
42,1,17,2,1,3,3,1,659.05,famous_male03.jpg
42,1,18,2,1,4,4,1,711.06,famous_male19.jpg
42,1,19,2,2,1,1,1,587.2,famous_female09.jpg
42,1,20,1,1,1,1,1,495.31,famous_male04.jpg
42,1,21,2,2,2,2,1,515.4,famous_female21.jpg
42,1,22,1,2,2,2,1,599.44,famous_female02.jpg
42,1,23,1,2,3,3,1,675.56,famous_female19.jpg
42,1,24,2,2,4,4,1,631.65,famous_female05.jpg
42,1,25,2,1,2,2,1,651.76,famous_male02.jpg
42,1,26,2,1,1,1,1,631.83,famous_male06.jpg
42,1,27,2,2,4,4,1,547.92,famous_female10.jpg
42,1,28,2,1,3,3,1,568,famous_male22.jpg
42,1,29,1,2,1,1,1,612.11,famous_female18.jpg
42,1,30,1,1,2,2,1,536.15,famous_male17.jpg
42,1,31,1,1,4,4,1,692.23,famous_male18.jpg
42,1,32,1,2,1,1,1,504.35,famous_female03.jpg
42,1,33,2,1,4,4,1,540.47,famous_male12.jpg
42,1,34,1,2,2,2,1,512.53,famous_female14.jpg
42,1,35,2,1,4,4,1,540.62,famous_male08.jpg
42,1,36,1,2,3,3,1,536.72,famous_female24.jpg
42,1,37,1,1,3,3,1,580.79,famous_male16.jpg
42,1,38,2,2,3,3,1,496.9,famous_female01.jpg
42,1,39,1,1,2,2,1,500.82,famous_male13.jpg
42,1,40,2,2,1,1,1,465.07,famous_female16.jpg
42,1,41,1,1,1,1,1,789.14,famous_male05.jpg
42,1,42,1,1,1,1,1,537.23,famous_male24.jpg
42,1,43,1,1,3,3,1,749.31,famous_male14.jpg
42,1,44,1,2,3,3,1,617.39,famous_female11.jpg
42,1,45,2,1,2,2,1,485.51,famous_male07.jpg
42,1,46,2,2,2,2,1,697.57,famous_female12.jpg
42,1,47,2,1,1,1,1,629.67,famous_male23.jpg
42,1,48,1,1,4,4,1,529.75,famous_male11.jpg
43,2,1,1,2,4,4,1,1596.63,unknown_female21.jpg
43,2,2,1,2,2,2,1,1216.75,unknown_female03.jpg
43,2,3,1,1,3,3,1,1076.86,unknown_male01.jpg
43,2,4,2,2,2,2,1,1856.97,unknown_female07.jpg
43,2,5,2,1,2,2,1,1413.04,unknown_male13.jpg
43,2,6,2,1,3,3,1,1673.13,unknown_male22.jpg
43,2,7,1,1,1,1,1,629.24,unknown_male23.jpg
43,2,8,1,2,3,3,1,665.3,unknown_female20.jpg
43,2,9,2,1,1,1,1,605.4,unknown_male16.jpg
43,2,10,2,1,2,2,1,633.48,unknown_male24.jpg
43,2,11,1,2,3,3,1,701.56,unknown_female18.jpg
43,2,12,1,2,1,1,1,489.63,unknown_female04.jpg
43,2,13,2,1,4,4,1,565.74,unknown_male06.jpg
43,2,14,1,1,2,2,1,665.83,unknown_male20.jpg
43,2,15,1,2,1,1,1,461.96,unknown_female13.jpg
43,2,16,2,2,2,2,1,546,unknown_female06.jpg
43,2,17,1,1,1,1,1,1046.12,unknown_male21.jpg
43,2,18,1,1,3,3,1,746.17,unknown_male04.jpg
43,2,19,1,1,1,1,1,542.27,unknown_male08.jpg
43,2,20,1,2,2,2,1,1426.38,unknown_female09.jpg
43,2,21,2,1,1,1,1,686.44,unknown_male10.jpg
43,2,22,1,1,2,2,1,578.58,unknown_male05.jpg
43,2,23,2,1,3,3,1,582.5,unknown_male17.jpg
43,2,24,2,2,3,3,1,642.74,unknown_female08.jpg
43,2,25,2,2,1,1,1,726.79,unknown_female19.jpg
43,2,26,2,2,4,4,1,682.88,unknown_female23.jpg
43,2,27,1,1,2,2,1,630.96,unknown_male02.jpg
43,2,28,2,1,2,2,1,619.05,unknown_male03.jpg
43,2,29,1,2,4,4,1,623.14,unknown_female12.jpg
43,2,30,2,1,4,4,1,459.23,unknown_male19.jpg
43,2,31,1,1,3,3,1,543.31,unknown_male18.jpg
43,2,32,2,2,3,3,1,531.37,unknown_female14.jpg
43,2,33,2,2,2,2,1,567.5,unknown_female24.jpg
43,2,34,2,1,1,1,1,603.58,unknown_male07.jpg
43,2,35,1,2,4,4,1,447.67,unknown_female01.jpg
43,2,36,2,2,3,3,1,603.72,unknown_female11.jpg
43,2,37,2,2,1,1,1,727.77,unknown_female17.jpg
43,2,38,1,1,4,4,1,555.92,unknown_male14.jpg
43,2,39,2,2,4,4,1,808.01,unknown_female02.jpg
43,2,40,2,2,4,4,1,596.08,unknown_female16.jpg
43,2,41,2,1,3,3,1,632.19,unknown_male09.jpg
43,2,42,1,2,1,1,1,484.2,unknown_female05.jpg
43,2,43,1,2,3,3,1,488.37,unknown_female15.jpg
43,2,44,1,1,4,4,1,644.46,unknown_male15.jpg
43,2,45,1,1,4,4,1,520.54,unknown_male12.jpg
43,2,46,1,2,2,2,1,676.59,unknown_female10.jpg
43,2,47,2,1,4,4,1,568.71,unknown_male11.jpg
43,2,48,2,2,1,1,1,468.8,unknown_female22.jpg
44,1,1,2,1,2,2,1,709.16,famous_male19.jpg
44,1,2,1,2,3,3,1,953.29,famous_female13.jpg
44,1,3,1,1,4,4,1,629.29,famous_male20.jpg
44,1,4,1,2,1,1,1,457.45,famous_female05.jpg
44,1,5,1,2,3,3,1,661.55,famous_female10.jpg
44,1,6,1,1,4,4,1,553.58,famous_male11.jpg
44,1,7,1,2,2,2,1,933.74,famous_female03.jpg
44,1,8,2,2,3,3,1,601.8,famous_female11.jpg
44,1,9,2,1,1,1,1,589.89,famous_male12.jpg
44,1,10,1,2,2,2,1,457.98,famous_female07.jpg
44,1,11,1,1,1,1,1,518.07,famous_male17.jpg
44,1,12,1,1,1,1,1,474.16,famous_male18.jpg
44,1,13,2,1,1,1,1,814.24,famous_male05.jpg
44,1,14,2,1,2,2,1,378.33,famous_male14.jpg
44,1,15,2,2,4,4,1,1078.39,famous_female09.jpg
44,1,16,1,1,4,4,1,890.5,famous_male21.jpg
44,1,17,1,1,2,2,1,518.6,famous_male09.jpg
44,1,18,2,2,2,2,1,458.68,famous_female14.jpg
44,1,19,2,1,3,3,1,646.77,famous_male16.jpg
44,1,20,1,2,1,1,1,474.87,famous_female21.jpg
44,1,21,2,1,4,4,1,598.9,famous_male07.jpg
44,1,22,2,1,1,1,1,371.03,famous_male13.jpg
44,1,23,2,2,4,4,1,583.08,famous_female17.jpg
44,1,24,2,1,2,2,1,427.21,famous_male02.jpg
44,1,25,1,1,2,2,1,487.29,famous_male23.jpg
44,1,26,2,2,2,2,1,1875.35,famous_female02.jpg
44,1,27,2,2,1,1,1,567.44,famous_female01.jpg
44,1,28,2,2,4,4,1,595.55,famous_female19.jpg
44,1,29,1,2,4,4,1,991.66,famous_female23.jpg
44,1,30,1,1,1,0,0,0,famous_male24.jpg
44,1,31,2,1,3,3,1,623.83,famous_male03.jpg
44,1,32,2,1,3,3,1,467.9,famous_male08.jpg
44,1,33,2,2,1,1,1,527.97,famous_female15.jpg
44,1,34,2,1,4,4,1,484.12,famous_male04.jpg
44,1,35,1,2,4,4,1,584.18,famous_female08.jpg
44,1,36,1,1,2,2,1,572.25,famous_male01.jpg
44,1,37,1,1,3,3,1,528.33,famous_male15.jpg
44,1,38,1,2,2,2,1,492.38,famous_female12.jpg
44,1,39,2,2,2,2,1,1626.21,famous_female24.jpg
44,1,40,2,2,1,1,1,430.31,famous_female06.jpg
44,1,41,1,2,1,1,1,466.4,famous_female16.jpg
44,1,42,1,1,3,3,1,558.48,famous_male10.jpg
44,1,43,1,2,4,4,1,498.58,famous_female22.jpg
44,1,44,2,2,3,3,1,862.68,famous_female20.jpg
44,1,45,1,1,3,3,1,1418.77,famous_male22.jpg
44,1,46,2,2,3,3,1,654.84,famous_female18.jpg
44,1,47,2,1,4,4,1,548.59,famous_male06.jpg
44,1,48,1,2,3,3,1,632.72,famous_female04.jpg
45,2,1,1,2,3,3,1,2918.86,unknown_female17.jpg
45,2,2,2,2,1,1,1,1562.93,unknown_female18.jpg
45,2,3,2,2,3,3,1,1239.02,unknown_female19.jpg
45,2,4,1,2,4,4,1,1227.12,unknown_female12.jpg
45,2,5,2,2,2,2,1,1279.19,unknown_female08.jpg
45,2,6,2,1,3,3,1,1099.29,unknown_male09.jpg
45,2,7,1,1,1,1,1,1223.33,unknown_male01.jpg
45,2,8,1,2,1,1,1,1395.39,unknown_female14.jpg
45,2,9,2,1,2,2,1,935.49,unknown_male24.jpg
45,2,10,2,1,2,2,1,1131.64,unknown_male21.jpg
45,2,11,1,2,4,4,1,1079.73,unknown_female24.jpg
45,2,12,1,2,1,1,1,1083.8,unknown_female13.jpg
45,2,13,1,1,3,3,1,1119.84,unknown_male08.jpg
45,2,14,2,1,1,1,1,820,unknown_male18.jpg
45,2,15,1,2,2,2,1,848.07,unknown_female07.jpg
45,2,16,1,1,1,1,1,988.16,unknown_male03.jpg
45,2,17,2,2,1,1,1,936.24,unknown_female22.jpg
45,2,18,2,1,4,4,1,804.33,unknown_male14.jpg
45,2,19,2,2,4,4,1,880.43,unknown_female23.jpg
45,2,20,1,2,1,1,1,668.51,unknown_female03.jpg
45,2,21,1,1,3,3,1,1104.59,unknown_male22.jpg
45,2,22,2,2,4,4,1,1164.7,unknown_female10.jpg
45,2,23,1,2,2,2,1,968.7,unknown_female02.jpg
45,2,24,1,2,2,2,1,908.85,unknown_female06.jpg
45,2,25,1,1,2,2,1,1024.94,unknown_male17.jpg
45,2,26,2,1,2,2,1,1141.02,unknown_male20.jpg
45,2,27,2,2,4,4,1,1321.11,unknown_female11.jpg
45,2,28,1,2,3,3,1,973.17,unknown_female15.jpg
45,2,29,2,1,3,3,1,945.26,unknown_male11.jpg
45,2,30,2,1,1,1,1,1093.36,unknown_male23.jpg
45,2,31,1,1,4,4,1,849.41,unknown_male05.jpg
45,2,32,2,1,3,3,1,1045.57,unknown_male10.jpg
45,2,33,2,1,4,4,1,1001.65,unknown_male07.jpg
45,2,34,1,1,2,2,1,1045.68,unknown_male16.jpg
45,2,35,1,1,2,2,1,1137.82,unknown_male13.jpg
45,2,36,2,2,1,1,1,845.91,unknown_female21.jpg
45,2,37,2,1,4,4,1,1073.99,unknown_male06.jpg
45,2,38,1,1,1,1,1,702.05,unknown_male19.jpg
45,2,39,1,1,4,4,1,850.04,unknown_male15.jpg
45,2,40,2,1,1,1,1,886.25,unknown_male04.jpg
45,2,41,2,2,2,2,1,962.33,unknown_female20.jpg
45,2,42,2,2,3,3,1,878.43,unknown_female01.jpg
45,2,43,2,2,3,3,1,754.48,unknown_female09.jpg
45,2,44,2,2,2,2,1,838.6,unknown_female05.jpg
45,2,45,1,2,4,4,1,1458.69,unknown_female04.jpg
45,2,46,1,1,4,4,1,990.8,unknown_male02.jpg
45,2,47,1,2,3,3,1,1050.86,unknown_female16.jpg
45,2,48,1,1,3,3,1,1398.9,unknown_male12.jpg
46,1,1,2,1,1,1,1,1332.39,famous_male17.jpg
46,1,2,1,1,4,4,1,1096.48,famous_male03.jpg
46,1,3,1,2,1,1,1,604.6,famous_female19.jpg
46,1,4,1,1,3,3,1,728.69,famous_male14.jpg
46,1,5,1,2,4,4,1,1292.72,famous_female12.jpg
46,1,6,1,1,2,2,1,800.82,famous_male08.jpg
46,1,7,1,1,4,4,1,884.95,famous_male21.jpg
46,1,8,2,1,1,1,1,705.04,famous_male05.jpg
46,1,9,2,1,4,4,1,821.12,famous_male07.jpg
46,1,10,2,1,2,2,1,1161.23,famous_male13.jpg
46,1,11,2,2,2,2,1,1085.32,famous_female20.jpg
46,1,12,1,2,1,1,1,1097.39,famous_female08.jpg
46,1,13,2,1,1,1,1,485.48,famous_male15.jpg
46,1,14,2,1,3,3,1,793.56,famous_male06.jpg
46,1,15,1,2,3,3,1,861.61,famous_female17.jpg
46,1,16,2,2,1,1,1,921.74,famous_female01.jpg
46,1,17,1,1,2,2,1,693.81,famous_male02.jpg
46,1,18,1,2,2,2,1,1113.91,famous_female09.jpg
46,1,19,1,1,3,3,1,726,famous_male04.jpg
46,1,20,2,2,4,4,1,842.11,famous_female23.jpg
46,1,21,1,2,1,1,1,494.17,famous_female22.jpg
46,1,22,2,2,1,1,1,1026.27,famous_female13.jpg
46,1,23,2,2,4,4,1,782.32,famous_female14.jpg
46,1,24,1,1,2,2,1,682.4,famous_male18.jpg
46,1,25,1,2,3,3,1,582.52,famous_female11.jpg
46,1,26,2,1,2,2,1,842.52,famous_male10.jpg
46,1,27,1,1,1,1,1,822.7,famous_male01.jpg
46,1,28,1,2,2,2,1,650.79,famous_female02.jpg
46,1,29,2,2,3,3,1,686.93,famous_female18.jpg
46,1,30,2,2,3,3,1,1466.98,famous_female16.jpg
46,1,31,1,1,3,3,1,1007.04,famous_male12.jpg
46,1,32,2,2,2,2,1,827.14,famous_female24.jpg
46,1,33,2,1,4,4,1,999.22,famous_male20.jpg
46,1,34,1,2,4,4,1,835.31,famous_female04.jpg
46,1,35,2,2,1,1,1,951.4,famous_female07.jpg
46,1,36,2,2,2,2,1,747.49,famous_female21.jpg
46,1,37,2,1,2,2,1,887.54,famous_male09.jpg
46,1,38,1,1,1,1,1,651.65,famous_male11.jpg
46,1,39,1,1,4,4,1,999.74,famous_male19.jpg
46,1,40,1,2,4,4,1,819.81,famous_female15.jpg
46,1,41,2,1,4,4,1,711.91,famous_male22.jpg
