SID,RepTime,Trial,ImgCat,Resp,Corr,RT,ImgName
1,1,1,2,1,0,699.85,unfamfemale37.jpg
1,1,2,1,1,1,511.25,capture010 copy.jpg
1,1,3,1,1,1,440.06,unfammale08.jpg
1,1,4,2,1,0,392.8,unfamfemale32.jpg
1,1,5,2,2,1,489.64,unfamfemale10.jpg
1,1,6,1,1,1,506.39,unfammale02.jpg
1,1,7,1,1,1,531.21,unfammale25.jpg
1,1,8,2,2,1,451.99,capture015 copy.jpg
1,1,9,1,1,1,540.8,unfammale19.jpg
1,1,10,2,2,1,549.58,capture021 copy.jpg
1,1,11,1,1,1,502.37,unfammale05.jpg
1,1,12,1,1,1,607.09,unfammale23.jpg
1,1,13,1,1,1,591.92,unfammale14.jpg
1,1,14,2,2,1,432.72,capture005 copy.jpg
1,1,15,1,1,1,441.44,unfammale39.jpg
1,1,16,2,2,1,426.29,unfamfemale04.jpg
1,1,17,2,2,1,483.07,unfamfemale08.jpg
1,1,18,2,2,1,619.81,unfamfemale21.jpg
1,1,19,1,1,1,604.65,unfammale18.jpg
1,1,20,1,1,1,485.37,unfammale21.jpg
1,1,21,2,2,1,646.17,unfamfemale17.jpg
1,1,22,2,2,1,534.92,unfamfemale40.jpg
1,1,23,1,1,1,519.73,unfammale38.jpg
1,1,24,2,2,1,488.53,unfamfemale01.jpg
1,2,1,1,1,1,576.52,unfammale05.jpg
1,2,2,2,2,1,521.32,unfamfemale04.jpg
1,2,3,1,1,1,482.09,unfammale02.jpg
1,2,4,2,2,1,410.89,unfamfemale08.jpg
1,2,5,2,2,1,475.63,unfamfemale10.jpg
1,2,6,2,2,1,516.46,unfamfemale32.jpg
1,2,7,2,2,1,613.24,unfamfemale01.jpg
1,2,8,1,1,1,534.01,unfammale19.jpg
1,2,9,2,2,1,502.79,unfamfemale21.jpg
1,2,10,1,1,1,415.61,unfammale21.jpg
1,2,11,1,1,1,472.39,capture010 copy.jpg
1,2,12,2,2,1,489.12,unfamfemale17.jpg
1,2,13,1,1,1,433.94,unfammale08.jpg
1,2,14,2,2,1,482.68,capture015 copy.jpg
1,2,15,1,1,1,515.53,unfammale25.jpg
1,2,16,1,1,1,492.29,unfammale14.jpg
1,2,17,1,1,1,461.07,unfammale18.jpg
1,2,18,1,1,1,469.83,unfammale38.jpg
1,2,19,2,2,1,470.67,capture021 copy.jpg
1,2,20,2,2,1,519.45,unfamfemale40.jpg
1,2,21,1,1,1,680.25,unfammale39.jpg
1,2,22,2,2,1,553.03,unfamfemale37.jpg
1,2,23,1,1,1,617.81,unfammale23.jpg
1,2,24,2,2,1,602.58,capture005 copy.jpg
1,3,1,2,2,1,461.46,unfamfemale40.jpg
1,3,2,2,2,1,502.27,unfamfemale04.jpg
1,3,3,1,1,1,543.07,unfammale39.jpg
1,3,4,1,1,1,471.81,unfammale25.jpg
1,3,5,1,1,1,456.63,unfammale05.jpg
1,3,6,2,2,1,473.42,capture021 copy.jpg
1,3,7,1,1,1,522.19,capture010 copy.jpg
1,3,8,1,1,1,459.01,unfammale18.jpg
1,3,9,2,2,1,515.8,unfamfemale17.jpg
1,3,10,2,2,1,476.58,capture015 copy.jpg
1,3,11,2,2,1,501.31,unfamfemale37.jpg
1,3,12,2,2,1,454.14,unfamfemale10.jpg
1,3,13,1,1,1,478.92,unfammale19.jpg
1,3,14,1,1,1,455.72,unfammale23.jpg
1,3,15,2,2,1,456.46,unfamfemale01.jpg
1,3,16,1,1,1,577.3,unfammale38.jpg
1,3,17,2,2,1,466.08,unfamfemale08.jpg
1,3,18,1,1,1,482.81,unfammale21.jpg
1,3,19,2,2,1,611.65,unfamfemale32.jpg
1,3,20,2,2,1,508.44,capture005 copy.jpg
1,3,21,1,1,1,517.22,unfammale08.jpg
1,3,22,2,2,1,646.01,unfamfemale21.jpg
1,3,23,1,1,1,542.79,unfammale02.jpg
1,3,24,1,1,1,695.58,unfammale14.jpg
1,4,1,1,1,1,598.96,unfammale23.jpg
1,4,2,2,2,1,567.77,unfamfemale01.jpg
1,4,3,1,1,1,512.56,unfammale19.jpg
1,4,4,1,1,1,505.34,unfammale14.jpg
1,4,5,2,2,1,514.1,unfamfemale32.jpg
1,4,6,1,1,1,410.89,unfammale18.jpg
1,4,7,1,1,1,403.69,unfammale05.jpg
1,4,8,2,2,1,372.48,capture015 copy.jpg
1,4,9,2,2,1,453.24,capture005 copy.jpg
1,4,10,2,2,1,470.05,capture021 copy.jpg
1,4,11,2,2,1,558.83,unfamfemale04.jpg
1,4,12,2,2,1,783.62,unfamfemale08.jpg
1,4,13,1,1,1,456.38,unfammale21.jpg
1,4,14,1,1,1,473.18,unfammale39.jpg
1,4,15,1,1,1,433.98,unfammale08.jpg
1,4,16,1,1,1,634.74,unfammale38.jpg
1,4,17,2,2,1,435.55,unfamfemale40.jpg
1,4,18,1,1,1,468.31,capture010 copy.jpg
1,4,19,2,2,1,493.12,unfamfemale17.jpg
1,4,20,2,2,1,477.91,unfamfemale10.jpg
1,4,21,1,1,1,510.65,unfammale25.jpg
1,4,22,2,2,1,559.45,unfamfemale21.jpg
1,4,23,1,1,1,432.23,unfammale02.jpg
1,4,24,2,2,1,497.01,unfamfemale37.jpg
1,5,1,1,1,1,590.01,unfammale18.jpg
1,5,2,2,2,1,438.77,unfamfemale17.jpg
1,5,3,2,2,1,463.61,unfamfemale08.jpg
1,5,4,1,1,1,408.37,unfammale08.jpg
1,5,5,2,2,1,601.14,unfamfemale01.jpg
1,5,6,1,1,1,521.97,capture010 copy.jpg
1,5,7,2,2,1,762.75,unfamfemale40.jpg
1,5,8,1,1,1,531.53,unfammale02.jpg
1,5,9,1,1,1,724.29,unfammale23.jpg
1,5,10,2,2,1,629.11,unfamfemale21.jpg
1,5,11,1,1,1,669.83,unfammale19.jpg
1,5,12,2,2,1,974.69,unfamfemale10.jpg
1,5,13,2,2,1,447.41,unfamfemale04.jpg
1,5,14,2,2,1,464.21,capture005 copy.jpg
1,5,15,1,1,1,448.97,unfammale39.jpg
1,5,16,2,2,1,505.79,capture015 copy.jpg
1,5,17,1,1,1,474.59,unfammale38.jpg
1,5,18,1,1,1,475.39,unfammale05.jpg
1,5,19,1,1,1,428.16,unfammale14.jpg
1,5,20,2,2,1,452.93,capture021 copy.jpg
1,5,21,2,2,1,533.75,unfamfemale37.jpg
1,5,22,1,1,1,462.53,unfammale21.jpg
1,5,23,1,1,1,431.29,unfammale25.jpg
1,5,24,2,2,1,488.09,unfamfemale32.jpg
1,6,1,2,2,1,460.88,unfamfemale37.jpg
1,6,2,1,1,1,501.63,unfammale38.jpg
1,6,3,1,1,1,486.45,unfammale05.jpg
1,6,4,1,1,1,431.24,unfammale18.jpg
1,6,5,2,2,1,503.93,unfamfemale08.jpg
1,6,6,2,2,1,512.82,capture015 copy.jpg
1,6,7,2,2,1,481.6,capture021 copy.jpg
1,6,8,2,2,1,450.34,unfamfemale04.jpg
1,6,9,1,1,1,427.16,unfammale21.jpg
1,6,10,2,2,1,419.96,unfamfemale32.jpg
1,6,11,2,2,1,396.71,unfamfemale01.jpg
1,6,12,1,1,1,509.52,unfammale19.jpg
1,6,13,1,1,1,502.29,unfammale14.jpg
1,6,14,2,2,1,415.1,unfamfemale40.jpg
1,6,15,2,2,1,391.85,unfamfemale10.jpg
1,6,16,2,2,1,472.67,capture005 copy.jpg
1,6,17,1,1,1,497.42,unfammale08.jpg
1,6,18,1,1,1,418.2,capture010 copy.jpg
1,6,19,2,2,1,459.02,unfamfemale21.jpg
1,6,20,1,1,1,451.81,unfammale02.jpg
1,6,21,1,1,1,436.6,unfammale25.jpg
1,6,22,2,2,1,541.33,unfamfemale17.jpg
1,6,23,1,1,1,526.17,unfammale23.jpg
1,6,24,1,1,1,430.89,unfammale39.jpg
1,7,1,1,1,1,536.97,capture010 copy.jpg
1,7,2,1,1,1,449.8,unfammale18.jpg
1,7,3,1,1,1,418.56,unfammale08.jpg
1,7,4,2,2,1,363.37,unfamfemale04.jpg
1,7,5,2,2,1,444.16,capture005 copy.jpg
1,7,6,2,2,1,412.91,unfamfemale10.jpg
1,7,7,2,2,1,485.73,unfamfemale08.jpg
1,7,8,1,1,1,446.48,unfammale02.jpg
1,7,9,2,2,1,479.25,unfamfemale32.jpg
1,7,10,2,2,1,456.05,capture021 copy.jpg
1,7,11,2,2,1,448.87,unfamfemale01.jpg
1,7,12,1,1,1,481.65,unfammale25.jpg
1,7,13,1,1,1,482.44,unfammale38.jpg
1,7,14,2,2,1,467.22,unfamfemale17.jpg
1,7,15,2,2,1,492.02,capture015 copy.jpg
1,7,16,2,2,1,340.8,unfamfemale37.jpg
1,7,17,1,1,1,413.56,unfammale23.jpg
1,7,18,1,1,1,406.37,unfammale39.jpg
1,7,19,2,2,1,423.13,unfamfemale21.jpg
1,7,20,1,1,1,479.94,unfammale19.jpg
1,7,21,1,1,1,432.73,unfammale14.jpg
1,7,22,1,1,1,441.43,unfammale05.jpg
1,7,23,2,2,1,418.27,unfamfemale40.jpg
1,7,24,1,1,1,515.02,unfammale21.jpg
1,8,1,2,2,1,586.86,unfamfemale17.jpg
1,8,2,1,1,1,451.59,unfammale18.jpg
1,8,3,2,2,1,580.37,unfamfemale04.jpg
1,8,4,1,1,1,445.22,unfammale25.jpg
1,8,5,2,2,1,421.99,unfamfemale21.jpg
1,8,6,2,2,1,422.75,unfamfemale01.jpg
1,8,7,2,2,1,535.58,capture005 copy.jpg
1,8,8,1,1,1,448.36,unfammale08.jpg
1,8,9,1,1,1,481.15,unfammale39.jpg
1,8,10,1,1,1,409.88,unfammale19.jpg
1,8,11,2,2,1,418.71,capture015 copy.jpg
1,8,12,1,1,1,451.51,unfammale21.jpg
1,8,13,1,1,1,380.29,unfammale02.jpg
1,8,14,2,2,1,765.04,capture021 copy.jpg
1,8,15,1,1,1,573.86,unfammale14.jpg
1,8,16,2,2,1,486.65,unfamfemale40.jpg
1,8,17,1,1,1,479.37,unfammale38.jpg
1,8,18,1,1,1,440.19,capture010 copy.jpg
1,8,19,2,2,1,417,unfamfemale32.jpg
1,8,20,1,1,1,561.74,unfammale23.jpg
1,8,21,2,2,1,570.54,unfamfemale37.jpg
1,8,22,1,1,1,507.33,unfammale05.jpg
1,8,23,2,2,1,436.13,unfamfemale08.jpg
1,8,24,2,2,1,468.93,unfamfemale10.jpg
2,1,1,2,2,1,410.01,capture001 copy.jpg
2,1,2,1,1,1,389.47,unfammale09.jpg
2,1,3,2,2,1,534.28,unfamfemale39.jpg
2,1,4,1,1,1,343.06,capture020 copy.jpg
2,1,5,2,2,1,383.82,unfamfemale03.jpg
2,1,6,1,1,1,352.57,capture003 copy.jpg
2,1,7,1,1,1,361.37,capture012 copy.jpg
2,1,8,2,2,1,338.18,unfamfemale05.jpg
2,1,9,1,1,1,402.91,unfammale12.jpg
2,1,10,1,1,1,459.76,capture011 copy.jpg
2,1,11,1,1,1,388.48,unfammale35.jpg
2,1,12,2,2,1,365.26,capture017 copy.jpg
2,1,13,1,1,1,438.09,unfammale28.jpg
2,1,14,2,2,1,374.89,unfamfemale26.jpg
2,1,15,2,2,1,463.64,unfamfemale24.jpg
2,1,16,1,1,1,400.39,unfammale16.jpg
2,1,17,2,2,1,361.17,capture002 copy.jpg
2,1,18,2,2,1,434.02,unfamfemale20.jpg
2,1,19,1,1,1,442.8,unfammale33.jpg
2,1,20,2,2,1,491.59,unfamfemale38.jpg
2,1,21,1,1,1,492.37,capture013 copy.jpg
2,1,22,2,2,1,373.15,unfamfemale06.jpg
2,1,23,1,1,1,365.91,capture016 copy.jpg
2,1,24,2,2,1,358.67,unfamfemale15.jpg
2,2,1,2,2,1,436.21,unfamfemale20.jpg
2,2,2,2,2,1,332.98,unfamfemale15.jpg
2,2,3,1,1,1,349.83,unfammale09.jpg
2,2,4,2,2,1,430.58,unfamfemale06.jpg
2,2,5,1,1,1,367.4,unfammale28.jpg
2,2,6,1,1,1,400.14,unfammale33.jpg
2,2,7,1,1,1,424.92,capture012 copy.jpg
2,2,8,2,2,1,393.69,unfamfemale26.jpg
2,2,9,1,1,1,354.47,capture011 copy.jpg
2,2,10,2,2,1,347.27,unfamfemale03.jpg
2,2,11,1,1,1,420.09,capture016 copy.jpg
2,2,12,2,2,1,516.83,capture002 copy.jpg
2,2,13,2,2,1,413.61,unfamfemale24.jpg
2,2,14,1,1,1,374.26,unfammale12.jpg
2,2,15,1,1,1,399.23,unfammale16.jpg
2,2,16,1,1,1,287.97,capture003 copy.jpg
2,2,17,1,1,1,344.76,capture013 copy.jpg
2,2,18,2,2,1,345.55,unfamfemale05.jpg
2,2,19,2,2,1,378.36,capture001 copy.jpg
2,2,20,1,1,1,331.12,capture020 copy.jpg
2,2,21,2,2,1,331.93,unfamfemale38.jpg
2,2,22,2,2,1,452.68,unfamfemale39.jpg
2,2,23,1,1,1,421.44,unfammale35.jpg
2,2,24,2,2,1,358.27,capture017 copy.jpg
2,3,1,2,2,1,444.06,capture017 copy.jpg
2,3,2,2,2,1,412.89,unfamfemale05.jpg
2,3,3,1,1,1,429.65,capture012 copy.jpg
2,3,4,2,2,1,406.46,capture001 copy.jpg
2,3,5,1,1,1,415.2,capture011 copy.jpg
2,3,6,2,2,1,448,capture002 copy.jpg
2,3,7,2,2,1,448.8,unfamfemale38.jpg
2,3,8,2,2,1,473.59,unfamfemale20.jpg
2,3,9,1,1,1,402.36,capture003 copy.jpg
2,3,10,1,1,1,379.11,unfammale33.jpg
2,3,11,1,1,1,395.91,unfammale16.jpg
2,3,12,2,0,0,0,unfamfemale03.jpg
2,3,13,1,1,1,493.46,unfammale12.jpg
2,3,14,2,2,1,382.28,unfamfemale24.jpg
2,3,15,2,2,1,367.07,unfamfemale26.jpg
2,3,16,2,2,1,327.82,unfamfemale15.jpg
2,3,17,2,2,1,408.56,unfamfemale39.jpg
2,3,18,1,1,1,449.42,capture016 copy.jpg
2,3,19,1,1,1,474.2,unfammale28.jpg
2,3,20,1,1,1,442.97,capture020 copy.jpg
2,3,21,1,1,1,427.77,unfammale09.jpg
2,3,22,2,2,1,372.53,unfamfemale06.jpg
2,3,23,1,1,1,469.34,capture013 copy.jpg
2,3,24,1,1,1,422.12,unfammale35.jpg
2,4,1,2,2,1,516.76,unfamfemale26.jpg
2,4,2,2,2,1,549.55,unfamfemale05.jpg
2,4,3,1,1,1,590.32,capture016 copy.jpg
2,4,4,1,1,1,391.06,unfammale09.jpg
2,4,5,2,2,1,391.84,capture002 copy.jpg
2,4,6,1,1,1,416.68,unfammale28.jpg
2,4,7,1,1,1,457.45,unfammale16.jpg
2,4,8,1,1,1,450.25,capture011 copy.jpg
2,4,9,2,2,1,467.03,unfamfemale38.jpg
2,4,10,1,1,1,411.73,capture013 copy.jpg
2,4,11,2,2,1,356.6,unfamfemale03.jpg
2,4,12,1,1,1,453.36,capture020 copy.jpg
2,4,13,2,2,1,438.16,unfamfemale39.jpg
2,4,14,2,2,1,446.9,unfamfemale20.jpg
2,4,15,2,2,1,343.72,capture001 copy.jpg
2,4,16,1,1,1,368.51,unfammale33.jpg
2,4,17,1,1,1,401.29,capture003 copy.jpg
2,4,18,1,1,1,362.05,capture012 copy.jpg
2,4,19,2,2,1,394.83,unfamfemale15.jpg
2,4,20,1,1,1,523.63,unfammale35.jpg
2,4,21,2,2,1,420.42,capture017 copy.jpg
2,4,22,2,2,1,309.21,unfamfemale06.jpg
2,4,23,1,1,1,421.99,unfammale12.jpg
2,4,24,2,2,1,646.77,unfamfemale24.jpg
2,5,1,1,1,1,495.83,unfammale12.jpg
2,5,2,1,1,1,392.58,unfammale33.jpg
2,5,3,1,1,1,521.43,capture013 copy.jpg
2,5,4,2,2,1,362.17,unfamfemale38.jpg
2,5,5,2,2,1,322.98,capture002 copy.jpg
2,5,6,2,2,1,355.77,capture017 copy.jpg
2,5,7,1,1,1,396.56,capture012 copy.jpg
2,5,8,2,2,1,397.34,unfamfemale26.jpg
2,5,9,1,1,1,422.1,unfammale28.jpg
2,5,10,1,1,1,366.89,capture016 copy.jpg
2,5,11,2,2,1,351.69,unfamfemale24.jpg
2,5,12,2,2,1,456.43,unfamfemale03.jpg
2,5,13,2,2,1,537.27,unfamfemale39.jpg
2,5,14,1,1,1,402.01,unfammale09.jpg
2,5,15,2,2,1,298.74,unfamfemale20.jpg
2,5,16,1,1,1,411.59,capture020 copy.jpg
2,5,17,2,2,1,460.39,unfamfemale05.jpg
2,5,18,1,1,1,565.12,unfammale16.jpg
2,5,19,2,2,1,429.91,capture001 copy.jpg
2,5,20,2,2,1,478.73,unfamfemale15.jpg
2,5,21,1,1,1,431.46,capture003 copy.jpg
2,5,22,2,2,1,376.24,unfamfemale06.jpg
2,5,23,1,1,1,449.1,capture011 copy.jpg
2,5,24,1,1,1,401.87,unfammale35.jpg
2,6,1,1,1,1,408.44,capture003 copy.jpg
2,6,2,1,1,1,409.19,unfammale12.jpg
2,6,3,2,2,1,378,unfamfemale38.jpg
2,6,4,1,1,1,778.8,capture016 copy.jpg
2,6,5,2,2,1,451.56,unfamfemale39.jpg
2,6,6,1,1,1,436.31,unfammale16.jpg
2,6,7,2,2,1,389.13,capture017 copy.jpg
2,6,8,2,2,1,309.92,unfamfemale06.jpg
2,6,9,1,1,1,422.71,unfammale33.jpg
2,6,10,1,1,1,415.5,capture020 copy.jpg
2,6,11,1,1,1,376.28,capture013 copy.jpg
2,6,12,2,2,1,361.06,unfamfemale20.jpg
2,6,13,1,1,1,353.84,unfammale09.jpg
2,6,14,1,1,1,442.57,capture011 copy.jpg
2,6,15,2,2,1,483.41,capture002 copy.jpg
2,6,16,2,2,1,460.2,unfamfemale26.jpg
2,6,17,2,2,1,428.98,unfamfemale15.jpg
2,6,18,1,1,1,429.76,unfammale35.jpg
2,6,19,1,0,0,0,unfammale28.jpg
2,6,20,2,2,1,335.32,unfamfemale24.jpg
2,6,21,2,2,1,368.11,capture001 copy.jpg
2,6,22,2,2,1,384.83,unfamfemale05.jpg
2,6,23,1,1,1,449.68,capture012 copy.jpg
2,6,24,2,2,1,338.41,unfamfemale03.jpg
2,7,1,2,2,1,422.02,unfamfemale39.jpg
2,7,2,1,1,1,462.76,capture020 copy.jpg
2,7,3,2,2,1,327.57,unfamfemale38.jpg
2,7,4,2,2,1,544.37,unfamfemale06.jpg
2,7,5,1,1,1,409.16,capture011 copy.jpg
2,7,6,2,2,1,329.9,unfamfemale26.jpg
2,7,7,2,2,1,394.67,unfamfemale03.jpg
2,7,8,1,1,1,427.45,capture013 copy.jpg
2,7,9,2,2,1,412.3,capture017 copy.jpg
2,7,10,2,2,1,357.03,capture001 copy.jpg
2,7,11,1,1,1,437.86,unfammale28.jpg
2,7,12,2,2,1,294.64,unfamfemale20.jpg
2,7,13,2,2,1,359.42,unfamfemale15.jpg
2,7,14,1,1,1,400.19,capture012 copy.jpg
2,7,15,1,1,1,392.95,unfammale35.jpg
2,7,16,1,1,1,353.78,capture003 copy.jpg
2,7,17,1,1,1,394.57,unfammale16.jpg
2,7,18,1,1,1,451.34,unfammale12.jpg
2,7,19,2,2,1,412.11,unfamfemale05.jpg
2,7,20,1,1,1,532.9,capture016 copy.jpg
2,7,21,1,1,1,613.7,unfammale33.jpg
2,7,22,2,2,1,478.45,unfamfemale24.jpg
2,7,23,2,2,1,327.21,capture002 copy.jpg
2,7,24,1,1,1,344.05,unfammale09.jpg
2,8,1,1,1,1,410.59,unfammale12.jpg
2,8,2,2,2,1,395.34,unfamfemale15.jpg
2,8,3,2,2,1,444.16,unfamfemale38.jpg
2,8,4,1,1,1,428.88,capture013 copy.jpg
2,8,5,2,2,1,405.73,unfamfemale39.jpg
2,8,6,1,1,1,430.48,unfammale09.jpg
2,8,7,2,2,1,391.28,unfamfemale26.jpg
2,8,8,1,1,1,376.08,capture016 copy.jpg
2,8,9,2,2,1,360.82,unfamfemale05.jpg
2,8,10,1,1,1,457.61,unfammale16.jpg
2,8,11,2,2,1,322.39,capture002 copy.jpg
2,8,12,2,2,1,475.21,capture017 copy.jpg
2,8,13,1,1,1,395.95,capture011 copy.jpg
2,8,14,2,2,1,404.73,unfamfemale03.jpg
2,8,15,2,2,1,389.52,unfamfemale20.jpg
2,8,16,1,1,1,422.35,capture003 copy.jpg
2,8,17,1,1,1,399.13,unfammale28.jpg
2,8,18,2,2,1,439.9,capture001 copy.jpg
2,8,19,1,1,1,336.64,unfammale35.jpg
2,8,20,1,1,1,441.48,unfammale33.jpg
2,8,21,2,2,1,386.27,unfamfemale06.jpg
2,8,22,1,0,0,0,capture020 copy.jpg
2,8,23,2,2,1,339.8,unfamfemale24.jpg
2,8,24,1,1,1,404.61,capture012 copy.jpg
3,1,1,1,1,1,665,unfammale02.jpg
3,1,2,2,2,1,519.07,capture002 copy.jpg
3,1,3,1,1,1,455.82,unfammale08.jpg
3,1,4,2,2,1,464.54,unfamfemale26.jpg
3,1,5,2,2,1,553.28,unfamfemale03.jpg
3,1,6,1,1,1,417.97,unfammale14.jpg
3,1,7,1,1,1,450.68,capture010 copy.jpg
3,1,8,2,2,1,499.47,unfamfemale20.jpg
3,1,9,2,2,1,612.21,unfamfemale05.jpg
3,1,10,2,2,1,548.93,unfamfemale15.jpg
3,1,11,2,2,1,560.35,unfamfemale39.jpg
3,1,12,1,1,1,531.67,unfammale23.jpg
3,1,13,2,2,1,527.11,unfamfemale38.jpg
3,1,14,1,1,1,522.57,unfammale18.jpg
3,1,15,2,2,1,525.9,unfamfemale06.jpg
3,1,16,2,2,1,465.32,capture017 copy.jpg
3,1,17,1,1,1,420.75,unfammale19.jpg
3,1,18,2,2,1,704.05,capture001 copy.jpg
3,1,19,1,1,1,531.58,unfammale05.jpg
3,1,20,2,2,1,478.93,unfamfemale24.jpg
3,1,21,1,1,1,522.35,unfammale25.jpg
3,1,22,1,1,1,530.86,unfammale38.jpg
3,1,23,1,1,1,507.59,unfammale39.jpg
3,1,24,1,1,1,500.31,unfammale21.jpg
3,2,1,1,1,1,460.17,unfammale05.jpg
3,2,2,1,1,1,444.94,unfammale38.jpg
3,2,3,2,2,1,397.66,capture001 copy.jpg
3,2,4,2,2,1,398.43,unfamfemale24.jpg
3,2,5,1,1,1,447.18,unfammale14.jpg
3,2,6,1,1,1,463.88,unfammale21.jpg
3,2,7,2,2,1,472.61,capture017 copy.jpg
3,2,8,2,2,1,433.38,unfamfemale38.jpg
3,2,9,1,1,1,434.11,unfammale02.jpg
3,2,10,2,2,1,450.84,capture002 copy.jpg
3,2,11,1,1,1,555.52,unfammale19.jpg
3,2,12,2,2,1,356.27,unfamfemale06.jpg
3,2,13,1,1,1,437.03,unfammale39.jpg
3,2,14,2,2,1,421.75,unfamfemale26.jpg
3,2,15,2,2,1,462.45,unfamfemale20.jpg
3,2,16,1,1,1,567.2,unfammale23.jpg
3,2,17,2,2,1,591.95,unfamfemale05.jpg
3,2,18,2,2,1,424.69,unfamfemale15.jpg
3,2,19,1,1,1,409.36,capture010 copy.jpg
3,2,20,1,1,1,442.1,unfammale25.jpg
3,2,21,2,2,1,562.87,unfamfemale39.jpg
3,2,22,2,2,1,443.57,unfamfemale03.jpg
3,2,23,1,1,1,452.28,unfammale08.jpg
3,2,24,1,1,1,413.08,unfammale18.jpg
3,3,1,2,2,1,780.47,unfamfemale06.jpg
3,3,2,2,2,1,517.27,unfamfemale38.jpg
3,3,3,1,1,1,485.99,unfammale05.jpg
3,3,4,2,2,1,502.69,unfamfemale20.jpg
3,3,5,1,1,1,319.4,capture010 copy.jpg
3,3,6,1,1,1,456.19,unfammale21.jpg
3,3,7,1,1,1,328.92,unfammale14.jpg
3,3,8,2,2,1,489.64,capture001 copy.jpg
3,3,9,1,1,1,450.32,unfammale02.jpg
3,3,10,1,1,1,411.11,unfammale25.jpg
3,3,11,1,1,1,491.85,unfammale18.jpg
3,3,12,2,2,1,452.55,unfamfemale39.jpg
3,3,13,2,1,0,479.89,unfamfemale05.jpg
3,3,14,2,2,1,472.7,unfamfemale15.jpg
3,3,15,2,2,1,377.44,capture017 copy.jpg
3,3,16,1,1,1,458.18,unfammale38.jpg
3,3,17,2,2,1,578.87,capture002 copy.jpg
3,3,18,1,1,1,459.59,unfammale23.jpg
3,3,19,2,2,1,484.37,unfamfemale03.jpg
3,3,20,1,1,1,469.08,unfammale08.jpg
3,3,21,1,1,1,565.82,unfammale19.jpg
3,3,22,2,2,1,478.57,unfamfemale26.jpg
3,3,23,2,2,1,375.28,unfamfemale24.jpg
3,3,24,1,1,1,495.97,unfammale39.jpg
3,4,1,2,2,1,447.66,unfamfemale38.jpg
3,4,2,1,1,1,488.43,unfammale02.jpg
3,4,3,1,1,1,449.17,unfammale19.jpg
3,4,4,2,2,1,433.88,unfamfemale05.jpg
3,4,5,2,2,1,658.63,unfamfemale06.jpg
3,4,6,1,1,1,475.36,unfammale23.jpg
3,4,7,1,1,1,404.09,unfammale39.jpg
3,4,8,1,1,1,372.78,unfammale05.jpg
3,4,9,1,1,1,349.5,unfammale14.jpg
3,4,10,2,2,1,534.26,capture001 copy.jpg
3,4,11,1,1,1,671.01,capture010 copy.jpg
3,4,12,1,1,1,431.7,unfammale21.jpg
3,4,13,1,1,1,432.48,unfammale18.jpg
3,4,14,2,2,1,489.17,capture002 copy.jpg
3,4,15,2,2,1,345.9,unfamfemale03.jpg
3,4,16,1,1,1,474.67,unfammale38.jpg
3,4,17,2,2,1,523.41,unfamfemale15.jpg
3,4,18,2,2,1,420.07,unfamfemale20.jpg
3,4,19,2,2,1,380.82,unfamfemale26.jpg
3,4,20,2,2,1,437.57,unfamfemale39.jpg
3,4,21,1,1,1,454.33,unfammale08.jpg
3,4,22,1,1,1,447.05,unfammale25.jpg
3,4,23,2,2,1,527.79,capture017 copy.jpg
3,4,24,2,2,1,432.49,unfamfemale24.jpg
3,5,1,1,1,1,496.13,unfammale38.jpg
3,5,2,2,2,1,504.91,unfamfemale24.jpg
3,5,3,2,2,1,497.61,unfamfemale03.jpg
3,5,4,1,1,1,474.37,capture010 copy.jpg
3,5,5,1,1,1,483.08,unfammale14.jpg
3,5,6,2,2,1,547.78,unfamfemale20.jpg
3,5,7,1,1,1,404.54,unfammale39.jpg
3,5,8,1,2,0,357.24,unfammale23.jpg
3,5,9,2,2,1,398.02,capture001 copy.jpg
3,5,10,1,1,1,550.77,unfammale02.jpg
3,5,11,2,2,1,439.5,unfamfemale26.jpg
3,5,12,1,1,1,520.23,unfammale08.jpg
3,5,13,1,1,1,472.96,unfammale18.jpg
3,5,14,1,1,1,489.67,unfammale21.jpg
3,5,15,2,2,1,450.38,unfamfemale39.jpg
3,5,16,2,2,1,515.15,unfamfemale38.jpg
3,5,17,2,2,1,459.83,unfamfemale05.jpg
3,5,18,2,2,1,484.6,capture002 copy.jpg
3,5,19,2,2,1,485.34,capture017 copy.jpg
3,5,20,1,1,1,382.02,unfammale05.jpg
3,5,21,1,1,1,398.81,unfammale25.jpg
3,5,22,1,1,1,527.54,unfammale19.jpg
3,5,23,2,2,1,544.27,unfamfemale15.jpg
3,5,24,2,2,1,520.96,unfamfemale06.jpg
3,6,1,2,2,1,632.03,unfamfemale26.jpg
3,6,2,2,2,1,448.8,unfamfemale39.jpg
3,6,3,1,1,1,497.51,unfammale05.jpg
3,6,4,1,1,1,498.24,capture010 copy.jpg
3,6,5,2,2,1,490.94,capture002 copy.jpg
3,6,6,1,1,1,539.7,unfammale38.jpg
3,6,7,1,1,1,540.47,unfammale08.jpg
3,6,8,2,2,1,493.18,capture001 copy.jpg
3,6,9,2,2,1,733.93,unfamfemale06.jpg
3,6,10,2,2,1,422.66,capture017 copy.jpg
3,6,11,1,1,1,423.39,unfammale14.jpg
3,6,12,1,1,1,496.08,unfammale19.jpg
3,6,13,1,1,1,488.86,unfammale18.jpg
3,6,14,2,2,1,401.58,unfamfemale24.jpg
3,6,15,1,1,1,450.32,unfammale25.jpg
3,6,16,2,2,1,475.03,unfamfemale03.jpg
3,6,17,1,1,1,563.73,unfammale23.jpg
3,6,18,2,2,1,572.46,unfamfemale05.jpg
3,6,19,2,2,1,581.22,unfamfemale20.jpg
3,6,20,1,1,1,597.95,unfammale21.jpg
3,6,21,1,1,1,446.71,unfammale39.jpg
3,6,22,1,1,1,663.41,unfammale02.jpg
3,6,23,2,2,1,768.18,unfamfemale15.jpg
3,6,24,2,2,1,528.9,unfamfemale38.jpg
3,7,1,2,2,1,469.56,unfamfemale20.jpg
3,7,2,1,1,1,462.27,unfammale14.jpg
3,7,3,2,2,1,487.06,unfamfemale38.jpg
3,7,4,1,1,1,463.79,unfammale38.jpg
3,7,5,1,1,1,432.51,unfammale02.jpg
3,7,6,1,1,1,401.23,unfammale19.jpg
3,7,7,1,1,1,441.98,unfammale25.jpg
3,7,8,2,2,1,482.69,unfamfemale15.jpg
3,7,9,2,2,1,435.38,unfamfemale39.jpg
3,7,10,1,1,1,532.16,capture010 copy.jpg
3,7,11,1,1,1,364.91,unfammale08.jpg
3,7,12,2,2,1,469.58,unfamfemale05.jpg
3,7,13,2,2,1,366.36,capture002 copy.jpg
3,7,14,2,2,1,511.06,capture001 copy.jpg
3,7,15,1,1,1,447.83,unfammale18.jpg
3,7,16,1,1,1,352.53,unfammale21.jpg
3,7,17,1,1,1,425.3,unfammale23.jpg
3,7,18,2,2,1,522.03,capture017 copy.jpg
3,7,19,1,1,1,450.71,unfammale05.jpg
3,7,20,2,2,1,443.48,unfamfemale24.jpg
3,7,21,1,1,1,492.22,unfammale39.jpg
3,7,22,2,2,1,420.95,unfamfemale03.jpg
3,7,23,2,2,1,469.67,unfamfemale06.jpg
3,7,24,2,2,1,414.41,unfamfemale26.jpg
3,8,1,1,1,1,374.8,unfammale25.jpg
3,8,2,2,2,1,391.53,unfamfemale20.jpg
3,8,3,1,1,1,384.26,unfammale02.jpg
3,8,4,2,2,1,449,unfamfemale15.jpg
3,8,5,2,2,1,449.65,unfamfemale06.jpg
3,8,6,1,1,1,770.46,unfammale21.jpg
3,8,7,1,1,1,443.16,unfammale38.jpg
3,8,8,1,1,1,467.92,unfammale18.jpg
3,8,9,2,2,1,508.65,unfamfemale38.jpg
3,8,10,1,1,1,525.39,unfammale39.jpg
3,8,11,2,2,1,414.12,unfamfemale05.jpg
3,8,12,2,2,1,454.79,capture017 copy.jpg
3,8,13,2,2,1,487.58,unfamfemale39.jpg
3,8,14,2,2,1,544.29,unfamfemale03.jpg
3,8,15,1,1,1,505.05,unfammale23.jpg
3,8,16,1,1,1,489.74,unfammale19.jpg
3,8,17,2,2,1,498.48,capture001 copy.jpg
3,8,18,2,2,1,491.21,capture002 copy.jpg
3,8,19,1,1,1,491.91,unfammale05.jpg
3,8,20,1,1,1,540.7,unfammale14.jpg
3,8,21,2,2,1,605.41,unfamfemale26.jpg
3,8,22,1,1,1,702.17,unfammale08.jpg
3,8,23,2,2,1,550.86,unfamfemale24.jpg
3,8,24,1,1,1,455.61,capture010 copy.jpg
4,1,1,1,1,1,526.92,unfammale33.jpg
4,1,2,1,1,1,476.96,unfammale09.jpg
4,1,3,1,1,1,453.67,unfammale16.jpg
4,1,4,2,2,1,462.39,unfamfemale32.jpg
4,1,5,2,2,1,351.18,capture015 copy.jpg
4,1,6,2,2,1,327.89,capture005 copy.jpg
4,1,7,2,2,1,328.6,unfamfemale04.jpg
4,1,8,2,2,1,329.34,unfamfemale10.jpg
4,1,9,1,1,1,458.06,unfammale28.jpg
4,1,10,2,2,1,482.82,unfamfemale37.jpg
4,1,11,1,1,1,446.21,unfammale35.jpg
4,1,12,1,1,1,457.65,capture013 copy.jpg
4,1,13,2,2,1,405.04,capture021 copy.jpg
4,1,14,2,2,1,312.46,unfamfemale40.jpg
4,1,15,1,1,1,451.62,capture012 copy.jpg
4,1,16,2,2,1,407.27,unfamfemale08.jpg
4,1,17,2,0,0,0,unfamfemale21.jpg
4,1,18,1,0,0,0,capture003 copy.jpg
4,1,19,1,0,0,0,capture020 copy.jpg
4,1,20,2,2,1,444.85,unfamfemale17.jpg
4,1,21,1,0,0,0,capture016 copy.jpg
4,1,22,1,1,1,489,unfammale12.jpg
4,1,23,2,2,1,457.71,unfamfemale01.jpg
4,1,24,1,1,1,690.48,capture011 copy.jpg
4,2,1,1,1,1,546.28,capture020 copy.jpg
4,2,2,2,2,1,490.96,capture021 copy.jpg
4,2,3,1,1,1,603.76,unfammale33.jpg
4,2,4,2,2,1,468.45,capture005 copy.jpg
4,2,5,1,1,1,453.18,unfammale28.jpg
4,2,6,1,1,1,485.91,unfammale16.jpg
4,2,7,2,2,1,446.62,unfamfemale10.jpg
4,2,8,1,1,1,431.41,capture012 copy.jpg
4,2,9,1,0,0,0,unfammale09.jpg
4,2,10,2,2,1,440.86,unfamfemale32.jpg
4,2,11,2,2,1,1129.62,unfamfemale37.jpg
4,2,12,2,2,1,810.35,unfamfemale04.jpg
4,2,13,1,1,1,499.03,capture011 copy.jpg
4,2,14,1,1,1,491.79,capture016 copy.jpg
4,2,15,1,1,1,508.51,unfammale12.jpg
4,2,16,2,2,1,389.24,capture015 copy.jpg
4,2,17,2,2,1,381.99,unfamfemale40.jpg
4,2,18,2,2,1,390.72,unfamfemale21.jpg
4,2,19,1,1,1,431.41,unfammale35.jpg
4,2,20,2,2,1,432.19,unfamfemale08.jpg
4,2,21,2,2,1,456.86,unfamfemale01.jpg
4,2,22,1,1,1,697.66,capture013 copy.jpg
4,2,23,2,2,1,674.34,unfamfemale17.jpg
4,2,24,1,1,1,731.12,capture003 copy.jpg
4,3,1,1,1,1,436.77,unfammale09.jpg
4,3,2,2,2,1,493.55,unfamfemale01.jpg
4,3,3,2,2,1,406.28,unfamfemale10.jpg
4,3,4,2,2,1,455.03,unfamfemale21.jpg
4,3,5,2,2,1,431.75,unfamfemale17.jpg
4,3,6,1,1,1,488.49,unfammale16.jpg
4,3,7,2,2,1,657.18,unfamfemale37.jpg
4,3,8,2,2,1,425.75,capture005 copy.jpg
4,3,9,2,2,1,450.68,capture021 copy.jpg
4,3,10,1,1,1,435.42,capture012 copy.jpg
4,3,11,2,2,1,460.14,unfamfemale40.jpg
4,3,12,1,1,1,564.85,capture011 copy.jpg
4,3,13,1,1,1,485.58,unfammale12.jpg
4,3,14,1,1,1,422.3,capture020 copy.jpg
4,3,15,2,2,1,471.05,unfamfemale04.jpg
4,3,16,1,1,1,591.81,capture003 copy.jpg
4,3,17,2,2,1,432.51,capture015 copy.jpg
4,3,18,1,1,1,457.22,unfammale33.jpg
4,3,19,1,1,1,466,capture013 copy.jpg
4,3,20,2,2,1,498.73,unfamfemale32.jpg
4,3,21,2,2,1,411.46,unfamfemale08.jpg
4,3,22,1,1,1,556.16,unfammale35.jpg
4,3,23,1,1,1,412.92,unfammale28.jpg
4,3,24,1,1,1,445.64,capture016 copy.jpg
4,4,1,1,1,1,503.36,unfammale33.jpg
4,4,2,2,2,1,448.01,unfamfemale10.jpg
4,4,3,2,2,1,392.8,capture015 copy.jpg
4,4,4,2,2,1,473.5,unfamfemale32.jpg
4,4,5,1,1,1,466.21,unfammale28.jpg
4,4,6,2,2,1,458.95,unfamfemale40.jpg
4,4,7,2,2,1,387.73,unfamfemale04.jpg
4,4,8,1,1,1,428.43,unfammale16.jpg
4,4,9,1,1,1,389.19,capture012 copy.jpg
4,4,10,1,1,1,405.93,unfammale09.jpg
4,4,11,1,1,1,406.64,unfammale12.jpg
4,4,12,1,1,1,495.39,capture011 copy.jpg
4,4,13,1,1,1,416.12,capture016 copy.jpg
4,4,14,2,2,1,515.5,unfamfemale17.jpg
4,4,15,2,2,1,364.2,unfamfemale08.jpg
4,4,16,2,2,1,332.95,unfamfemale37.jpg
4,4,17,2,2,1,325.66,unfamfemale21.jpg
4,4,18,1,1,1,462.39,capture020 copy.jpg
4,4,19,1,1,1,287.15,capture003 copy.jpg
4,4,20,2,2,1,431.89,capture005 copy.jpg
4,4,21,2,2,1,456.61,unfamfemale01.jpg
4,4,22,1,1,1,633.38,capture013 copy.jpg
4,4,23,2,2,1,610.06,capture021 copy.jpg
4,4,24,1,1,1,530.84,unfammale35.jpg
4,5,1,2,2,1,811.83,capture021 copy.jpg
4,5,2,2,2,1,460.56,unfamfemale01.jpg
4,5,3,1,1,1,477.29,capture011 copy.jpg
4,5,4,1,1,1,422.07,unfammale16.jpg
4,5,5,2,2,1,454.75,capture015 copy.jpg
4,5,6,2,2,1,431.51,unfamfemale32.jpg
4,5,7,2,2,1,552.23,capture005 copy.jpg
4,5,8,2,2,1,424.96,unfamfemale04.jpg
4,5,9,1,1,1,489.73,unfammale12.jpg
4,5,10,1,1,1,538.44,capture003 copy.jpg
4,5,11,2,2,1,499.19,unfamfemale10.jpg
4,5,12,1,1,1,491.92,unfammale09.jpg
4,5,13,1,1,1,588.64,unfammale33.jpg
4,5,14,2,0,0,0,unfamfemale37.jpg
4,5,15,1,1,1,454.12,unfammale35.jpg
4,5,16,2,2,1,406.85,unfamfemale08.jpg
4,5,17,1,1,1,463.55,capture013 copy.jpg
4,5,18,2,2,1,384.31,unfamfemale21.jpg
4,5,19,1,1,1,417,capture020 copy.jpg
4,5,20,1,1,1,441.72,capture016 copy.jpg
4,5,21,1,1,1,410.5,capture012 copy.jpg
4,5,22,2,2,1,411.21,unfamfemale40.jpg
4,5,23,2,2,1,435.94,unfamfemale17.jpg
4,5,24,1,1,1,516.65,unfammale28.jpg
4,6,1,2,2,1,511.31,unfamfemale08.jpg
4,6,2,1,1,1,375.93,capture012 copy.jpg
4,6,3,2,2,1,480.71,unfamfemale32.jpg
4,6,4,2,2,1,465.49,unfamfemale40.jpg
4,6,5,2,2,1,354.22,capture021 copy.jpg
4,6,6,1,1,1,482.93,unfammale28.jpg
4,6,7,2,2,1,427.64,unfamfemale37.jpg
4,6,8,1,1,1,516.37,capture003 copy.jpg
4,6,9,2,2,1,445.09,unfamfemale01.jpg
4,6,10,2,0,0,0,unfamfemale10.jpg
4,6,11,1,1,1,374.56,capture016 copy.jpg
4,6,12,2,2,1,447.35,capture015 copy.jpg
4,6,13,1,1,1,616.08,unfammale33.jpg
4,6,14,2,2,1,952.58,unfamfemale21.jpg
4,6,15,2,2,1,425.54,unfamfemale04.jpg
4,6,16,1,1,1,418.27,unfammale16.jpg
4,6,17,2,2,1,355,unfamfemale17.jpg
4,6,18,1,1,1,443.73,unfammale09.jpg
4,6,19,1,1,1,468.45,unfammale35.jpg
4,6,20,1,1,1,589.2,capture011 copy.jpg
4,6,21,1,1,1,397.91,capture020 copy.jpg
4,6,22,1,1,1,342.61,capture013 copy.jpg
4,6,23,2,2,1,375.21,capture005 copy.jpg
4,6,24,1,1,1,416.12,unfammale12.jpg
4,7,1,2,2,1,455.14,unfamfemale37.jpg
4,7,2,2,2,1,383.89,capture015 copy.jpg
4,7,3,2,2,1,328.59,unfamfemale40.jpg
4,7,4,2,2,1,393.33,unfamfemale08.jpg
4,7,5,1,1,1,458.06,unfammale16.jpg
4,7,6,1,1,1,554.82,unfammale12.jpg
4,7,7,2,2,1,539.51,unfamfemale32.jpg
4,7,8,1,1,1,516.31,capture016 copy.jpg
4,7,9,2,2,1,317.04,capture005 copy.jpg
4,7,10,2,2,1,333.74,unfamfemale10.jpg
4,7,11,1,1,1,462.5,capture012 copy.jpg
4,7,12,1,1,1,607.23,capture011 copy.jpg
4,7,13,1,1,1,575.9,capture013 copy.jpg
4,7,14,1,1,1,376.69,unfammale28.jpg
4,7,15,2,0,0,0,unfamfemale04.jpg
4,7,16,1,1,1,418.16,unfammale33.jpg
4,7,17,2,2,1,362.89,unfamfemale21.jpg
4,7,18,1,1,1,603.57,capture020 copy.jpg
4,7,19,2,2,1,516.34,unfamfemale01.jpg
4,7,20,1,1,1,485.03,capture003 copy.jpg
4,7,21,1,1,1,485.8,unfammale35.jpg
4,7,22,2,2,1,502.55,capture021 copy.jpg
4,7,23,2,2,1,567.28,unfamfemale17.jpg
4,7,24,1,1,1,471.91,unfammale09.jpg
4,8,1,2,2,1,521.77,unfamfemale01.jpg
4,8,2,1,0,0,0,unfammale12.jpg
4,8,3,2,2,1,483.24,unfamfemale10.jpg
4,8,4,1,1,1,619.98,unfammale35.jpg
4,8,5,1,1,1,732.66,unfammale28.jpg
4,8,6,1,0,0,0,capture016 copy.jpg
4,8,7,2,2,1,598.17,capture015 copy.jpg
4,8,8,2,2,1,390.66,unfamfemale37.jpg
4,8,9,1,1,1,447.61,capture003 copy.jpg
4,8,10,1,1,1,408.34,unfammale09.jpg
4,8,11,2,2,1,489.08,unfamfemale17.jpg
4,8,12,1,1,1,689.83,capture011 copy.jpg
4,8,13,1,1,1,562.56,unfammale16.jpg
4,8,14,2,2,1,435.29,unfamfemale32.jpg
4,8,15,1,1,1,867.98,unfammale33.jpg
4,8,16,1,0,0,0,capture020 copy.jpg
4,8,17,2,0,0,0,unfamfemale21.jpg
4,8,18,2,2,1,662.21,unfamfemale40.jpg
4,8,19,2,2,1,486.93,capture021 copy.jpg
4,8,20,2,2,1,431.62,unfamfemale04.jpg
4,8,21,2,2,1,416.35,capture005 copy.jpg
4,8,22,2,2,1,585.14,unfamfemale08.jpg
4,8,23,1,1,1,457.8,capture012 copy.jpg
4,8,24,1,1,1,522.6,capture013 copy.jpg
5,1,1,2,2,1,579.64,unfamfemale17.jpg
5,1,2,2,2,1,433.75,unfamfemale10.jpg
5,1,3,1,1,1,378.54,unfammale39.jpg
5,1,4,1,1,1,379.35,unfammale25.jpg
5,1,5,2,2,1,564.15,unfamfemale32.jpg
5,1,6,2,2,1,452.94,unfamfemale08.jpg
5,1,7,1,1,1,384.4,unfammale19.jpg
5,1,8,2,2,1,393.18,unfamfemale01.jpg
5,1,9,1,1,1,441.93,unfammale05.jpg
5,1,10,2,2,1,434.68,unfamfemale04.jpg
5,1,11,2,2,1,427.53,capture021 copy.jpg
5,1,12,2,2,1,484.32,unfamfemale37.jpg
5,1,13,2,1,0,397.07,unfamfemale40.jpg
5,1,14,1,1,1,573.88,unfammale14.jpg
5,1,15,1,1,1,462.61,unfammale18.jpg
5,1,16,2,2,1,391.46,unfamfemale21.jpg
5,1,17,1,1,1,480.24,unfammale08.jpg
5,1,18,1,1,1,480.98,unfammale02.jpg
5,1,19,1,1,1,537.81,capture010 copy.jpg
5,1,20,1,1,1,538.6,unfammale38.jpg
5,1,21,2,2,1,547.38,capture005 copy.jpg
5,1,22,1,1,1,580.17,unfammale21.jpg
5,1,23,2,2,1,556.95,capture015 copy.jpg
5,1,24,1,1,1,685.71,unfammale23.jpg
5,2,1,2,2,1,482.76,capture021 copy.jpg
5,2,2,2,2,1,475.54,unfamfemale37.jpg
5,2,3,1,1,1,420.31,capture010 copy.jpg
5,2,4,1,2,0,421.09,unfammale02.jpg
5,2,5,2,2,1,413.93,unfamfemale40.jpg
5,2,6,1,1,1,590.66,unfammale14.jpg
5,2,7,1,1,1,439.43,unfammale38.jpg
5,2,8,1,1,1,480.27,unfammale18.jpg
5,2,9,2,2,1,449,unfamfemale01.jpg
5,2,10,2,2,1,433.82,unfamfemale08.jpg
5,2,11,2,2,1,410.63,unfamfemale17.jpg
5,2,12,1,1,1,419.36,unfammale05.jpg
5,2,13,2,2,1,564.18,unfamfemale32.jpg
5,2,14,2,2,1,495.62,capture005 copy.jpg
5,2,15,1,1,1,552.44,unfammale25.jpg
5,2,16,1,1,1,633.22,unfammale23.jpg
5,2,17,1,1,1,529.96,unfammale39.jpg
5,2,18,2,2,1,466.74,unfamfemale10.jpg
5,2,19,2,2,1,571.57,capture015 copy.jpg
5,2,20,1,1,1,564.36,unfammale19.jpg
5,2,21,2,2,1,557.12,unfamfemale04.jpg
5,2,22,1,1,1,477.88,unfammale08.jpg
5,2,23,2,2,1,454.69,unfamfemale21.jpg
5,2,24,1,1,1,551.5,unfammale21.jpg
5,3,1,2,2,1,516.06,unfamfemale04.jpg
5,3,2,2,2,1,388.84,unfamfemale21.jpg
5,3,3,1,1,1,621.61,unfammale23.jpg
5,3,4,1,1,1,486.4,unfammale21.jpg
5,3,5,2,2,1,399.2,unfamfemale08.jpg
5,3,6,2,2,1,559.93,unfamfemale32.jpg
5,3,7,1,1,1,504.73,unfammale02.jpg
5,3,8,2,2,1,441.52,capture021 copy.jpg
5,3,9,1,1,1,450.29,unfammale05.jpg
5,3,10,1,1,1,507.07,unfammale19.jpg
5,3,11,1,1,1,531.86,unfammale18.jpg
5,3,12,1,1,1,532.62,unfammale39.jpg
5,3,13,2,2,1,685.46,unfamfemale17.jpg
5,3,14,2,2,1,454.26,capture005 copy.jpg
5,3,15,1,2,0,495,unfammale08.jpg
5,3,16,1,1,1,439.76,unfammale38.jpg
5,3,17,1,1,1,456.55,capture010 copy.jpg
5,3,18,2,2,1,505.37,capture015 copy.jpg
5,3,19,2,2,1,354.12,unfamfemale37.jpg
5,3,20,1,1,1,490.95,unfammale14.jpg
5,3,21,2,2,1,411.74,unfamfemale40.jpg
5,3,22,2,2,1,420.53,unfamfemale10.jpg
5,3,23,1,1,1,413.31,unfammale25.jpg
5,3,24,2,2,1,518.05,unfamfemale01.jpg
5,4,1,1,1,1,488.54,unfammale18.jpg
5,4,2,1,1,1,473.34,unfammale21.jpg
5,4,3,2,2,1,426.05,unfamfemale08.jpg
5,4,4,1,1,1,402.91,unfammale19.jpg
5,4,5,2,2,1,459.67,unfamfemale10.jpg
5,4,6,2,2,1,452.43,unfamfemale04.jpg
5,4,7,2,2,1,469.26,capture005 copy.jpg
5,4,8,2,2,1,542.05,unfamfemale01.jpg
5,4,9,1,0,0,0,unfammale38.jpg
5,4,10,1,2,0,527.62,capture010 copy.jpg
5,4,11,1,1,1,528.36,unfammale25.jpg
5,4,12,2,2,1,489.18,unfamfemale32.jpg
5,4,13,2,2,1,553.91,unfamfemale37.jpg
5,4,14,1,1,1,626.74,unfammale08.jpg
5,4,15,1,1,1,523.54,unfammale05.jpg
5,4,16,1,1,1,564.32,unfammale23.jpg
5,4,17,1,1,1,533.04,unfammale39.jpg
5,4,18,2,2,1,453.86,capture021 copy.jpg
5,4,19,1,1,1,558.68,unfammale02.jpg
5,4,20,2,2,1,759.46,unfamfemale17.jpg
5,4,21,2,2,1,512.24,capture015 copy.jpg
5,4,22,2,2,1,811.69,unfamfemale21.jpg
5,4,23,1,1,1,516.48,unfammale14.jpg
5,4,24,2,2,1,493.25,unfamfemale40.jpg
5,5,1,1,1,1,447.14,unfammale21.jpg
5,5,2,2,2,1,527.92,unfamfemale17.jpg
5,5,3,1,1,1,488.69,unfammale02.jpg
5,5,4,2,2,1,425.49,capture015 copy.jpg
5,5,5,2,2,1,538.26,unfamfemale01.jpg
5,5,6,2,2,1,539.03,unfamfemale10.jpg
5,5,7,1,1,1,451.79,unfammale23.jpg
5,5,8,1,1,1,452.63,unfammale08.jpg
5,5,9,2,2,1,525.4,unfamfemale04.jpg
5,5,10,2,2,1,518.2,unfamfemale32.jpg
5,5,11,2,2,1,526.98,unfamfemale08.jpg
5,5,12,1,1,1,559.76,unfammale38.jpg
5,5,13,2,2,1,784.55,capture005 copy.jpg
5,5,14,2,2,1,609.33,unfamfemale21.jpg
5,5,15,1,1,1,474.12,unfammale19.jpg
5,5,16,2,2,1,498.89,capture021 copy.jpg
5,5,17,1,1,1,603.63,unfammale18.jpg
5,5,18,1,1,1,628.44,unfammale25.jpg
5,5,19,2,2,1,517.21,unfamfemale40.jpg
5,5,20,1,1,1,477.98,unfammale14.jpg
5,5,21,1,1,1,614.8,unfammale05.jpg
5,5,22,2,2,1,551.61,unfamfemale37.jpg
5,5,23,1,1,1,600.33,unfammale39.jpg
5,5,24,1,1,1,593.17,capture010 copy.jpg
5,6,1,1,1,1,510.16,unfammale23.jpg
5,6,2,1,1,1,382.99,unfammale14.jpg
5,6,3,1,1,1,439.72,unfammale21.jpg
5,6,4,2,2,1,400.56,capture015 copy.jpg
5,6,5,2,2,1,561.3,capture005 copy.jpg
5,6,6,2,2,1,858.14,unfamfemale32.jpg
5,6,7,2,2,1,402.9,capture021 copy.jpg
5,6,8,1,2,0,395.69,unfammale38.jpg
5,6,9,2,2,1,484.49,unfamfemale10.jpg
5,6,10,1,1,1,453.25,capture010 copy.jpg
5,6,11,1,1,1,430.03,unfammale08.jpg
5,6,12,2,2,1,422.84,unfamfemale01.jpg
5,6,13,2,2,1,399.61,unfamfemale04.jpg
5,6,14,2,2,1,480.39,unfamfemale40.jpg
5,6,15,1,1,1,553.16,unfammale02.jpg
5,6,16,2,2,1,577.94,unfamfemale21.jpg
5,6,17,1,1,1,730.7,unfammale05.jpg
5,6,18,2,2,1,547.55,unfamfemale37.jpg
5,6,19,2,2,1,588.32,unfamfemale08.jpg
5,6,20,1,1,1,653.12,unfammale25.jpg
5,6,21,2,2,1,501.9,unfamfemale17.jpg
5,6,22,1,1,1,934.64,unfammale19.jpg
5,6,23,1,1,1,535.4,unfammale39.jpg
5,6,24,1,1,1,480.25,unfammale18.jpg
5,7,1,2,2,1,418.6,unfamfemale08.jpg
5,7,2,1,1,1,411.39,capture010 copy.jpg
5,7,3,1,1,1,492.11,unfammale02.jpg
5,7,4,2,2,1,628.92,capture015 copy.jpg
5,7,5,1,1,1,541.74,unfammale39.jpg
5,7,6,1,1,1,574.52,unfammale05.jpg
5,7,7,2,2,1,407.3,unfamfemale21.jpg
5,7,8,1,2,0,512.09,unfammale38.jpg
5,7,9,2,2,1,656.87,unfamfemale40.jpg
5,7,10,1,1,1,785.65,unfammale18.jpg
5,7,11,2,2,1,474.44,unfamfemale04.jpg
5,7,12,1,1,1,539.22,unfammale23.jpg
5,7,13,1,1,1,596.01,unfammale21.jpg
5,7,14,2,2,1,988.74,unfamfemale17.jpg
5,7,15,1,1,1,653.58,unfammale19.jpg
5,7,16,2,2,1,670.37,unfamfemale32.jpg
5,7,17,2,2,1,471.09,unfamfemale01.jpg
5,7,18,1,1,1,511.87,unfammale14.jpg
5,7,19,1,1,1,640.7,unfammale25.jpg
5,7,20,2,2,1,465.49,capture021 copy.jpg
5,7,21,2,2,1,778.28,capture005 copy.jpg
5,7,22,2,2,1,507.05,unfamfemale37.jpg
5,7,23,1,2,0,323.78,unfammale08.jpg
5,7,24,2,2,1,532.63,unfamfemale10.jpg
5,8,1,2,2,1,531.9,unfamfemale04.jpg
5,8,2,2,2,1,636.77,unfamfemale08.jpg
5,8,3,1,1,1,421.54,unfammale14.jpg
5,8,4,1,1,1,494.29,unfammale02.jpg
5,8,5,1,2,0,463.08,unfammale18.jpg
5,8,6,1,1,1,554.89,unfammale19.jpg
5,8,7,2,2,1,456.68,unfamfemale17.jpg
5,8,8,1,0,0,0,capture010 copy.jpg
5,8,9,2,2,1,450.26,unfamfemale40.jpg
5,8,10,1,1,1,811.04,unfammale38.jpg
5,8,11,2,2,1,555.82,capture021 copy.jpg
5,8,12,2,2,1,596.61,unfamfemale10.jpg
5,8,13,1,1,1,581.39,unfammale08.jpg
5,8,14,2,2,1,582.17,unfamfemale32.jpg
5,8,15,2,1,0,950.92,capture005 copy.jpg
5,8,16,2,2,1,687.7,unfamfemale21.jpg
5,8,17,2,2,1,544.5,capture015 copy.jpg
5,8,18,2,2,1,481.3,unfamfemale37.jpg
5,8,19,1,1,1,530.09,unfammale21.jpg
5,8,20,1,1,1,650.87,unfammale23.jpg
5,8,21,2,2,1,1179.67,unfamfemale01.jpg
5,8,22,1,1,1,748.4,unfammale05.jpg
5,8,23,1,2,0,1029.24,unfammale39.jpg
5,8,24,1,1,1,582.01,unfammale25.jpg
6,1,1,2,2,1,521.01,capture002 copy.jpg
6,1,2,1,1,1,447.05,capture012 copy.jpg
6,1,3,2,2,1,583.87,unfamfemale24.jpg
6,1,4,1,1,1,472.6,capture016 copy.jpg
6,1,5,1,1,1,497.34,unfammale28.jpg
6,1,6,2,2,1,538.07,unfamfemale06.jpg
6,1,7,1,1,1,634.81,capture011 copy.jpg
6,1,8,1,1,1,515.49,unfammale35.jpg
6,1,9,2,2,1,532.19,unfamfemale05.jpg
6,1,10,1,1,1,492.95,unfammale12.jpg
6,1,11,1,1,1,528.38,capture013 copy.jpg
6,1,12,2,2,1,491.75,unfamfemale39.jpg
6,1,13,2,2,1,599.16,unfamfemale26.jpg
6,1,14,2,2,1,594.57,capture017 copy.jpg
6,1,15,1,1,1,469.99,unfammale33.jpg
6,1,16,1,1,1,449.44,capture020 copy.jpg
6,1,17,2,2,1,556.77,capture001 copy.jpg
6,1,18,2,2,1,552.19,unfamfemale20.jpg
6,1,19,2,2,1,547.43,unfamfemale03.jpg
6,1,20,2,2,1,567.06,unfamfemale15.jpg
6,1,21,1,1,1,450.45,capture003 copy.jpg
6,1,22,1,1,1,485.86,unfammale16.jpg
6,1,23,1,1,1,617.26,unfammale09.jpg
6,1,24,2,2,1,580.69,unfamfemale38.jpg
6,2,1,1,1,1,618.39,unfammale16.jpg
6,2,2,1,1,1,443.09,unfammale09.jpg
6,2,3,2,2,1,435.85,unfamfemale03.jpg
6,2,4,2,2,1,391.24,unfamfemale24.jpg
6,2,5,2,2,1,450.68,unfamfemale39.jpg
6,2,6,1,1,1,587.4,capture013 copy.jpg
6,2,7,1,1,1,502.75,capture011 copy.jpg
6,2,8,1,1,1,450.17,capture003 copy.jpg
6,2,9,1,1,1,442.94,capture020 copy.jpg
6,2,10,2,2,1,523.62,unfamfemale20.jpg
6,2,11,2,2,1,452.35,unfamfemale38.jpg
6,2,12,1,1,1,509.14,capture016 copy.jpg
6,2,13,1,1,1,525.85,unfammale33.jpg
6,2,14,2,2,1,657.22,capture001 copy.jpg
6,2,15,2,2,1,450.01,capture017 copy.jpg
6,2,16,2,2,1,530.74,unfamfemale05.jpg
6,2,17,1,1,1,363.45,unfammale12.jpg
6,2,18,2,2,1,436.16,unfamfemale06.jpg
6,2,19,1,1,1,444.94,unfammale28.jpg
6,2,20,1,1,1,493.64,unfammale35.jpg
6,2,21,2,2,1,486.4,unfamfemale15.jpg
6,2,22,1,1,1,423.1,capture012 copy.jpg
6,2,23,2,2,1,495.86,unfamfemale26.jpg
6,2,24,2,2,1,512.6,capture002 copy.jpg
6,3,1,2,2,1,466.26,unfamfemale06.jpg
6,3,2,2,2,1,538.97,capture001 copy.jpg
6,3,3,1,1,1,475.65,unfammale09.jpg
6,3,4,2,2,1,540.43,unfamfemale20.jpg
6,3,5,2,2,1,485.16,unfamfemale39.jpg
6,3,6,2,2,1,573.9,capture002 copy.jpg
6,3,7,1,1,1,518.63,capture020 copy.jpg
6,3,8,1,1,1,487.22,unfammale16.jpg
6,3,9,1,1,1,442.71,unfammale28.jpg
6,3,10,2,2,1,459.48,unfamfemale15.jpg
6,3,11,1,1,1,564.17,capture003 copy.jpg
6,3,12,1,1,1,476.94,unfammale33.jpg
6,3,13,2,2,1,496.32,unfamfemale03.jpg
6,3,14,2,2,1,513.05,unfamfemale26.jpg
6,3,15,1,1,1,473.78,unfammale12.jpg
6,3,16,2,2,1,538.53,unfamfemale24.jpg
6,3,17,1,1,1,437.96,capture013 copy.jpg
6,3,18,2,2,1,550.68,unfamfemale38.jpg
6,3,19,1,1,1,527.41,capture011 copy.jpg
6,3,20,1,1,1,512.11,capture016 copy.jpg
6,3,21,1,1,1,504.9,unfammale35.jpg
6,3,22,2,2,1,473.58,unfamfemale05.jpg
6,3,23,1,1,1,522.37,capture012 copy.jpg
6,3,24,2,2,1,507.06,capture017 copy.jpg
6,4,1,2,2,1,578.11,unfamfemale06.jpg
6,4,2,2,2,1,474.84,unfamfemale15.jpg
6,4,3,1,1,1,475.53,unfammale33.jpg
6,4,4,2,2,1,540.26,unfamfemale26.jpg
6,4,5,1,1,1,452.99,capture012 copy.jpg
6,4,6,2,2,1,501.78,capture001 copy.jpg
6,4,7,2,2,1,526.5,capture002 copy.jpg
6,4,8,1,1,1,503.18,unfammale28.jpg
6,4,9,2,2,1,479.89,unfamfemale20.jpg
6,4,10,1,1,1,464.7,capture013 copy.jpg
6,4,11,2,2,1,473.44,capture017 copy.jpg
6,4,12,1,1,1,474.15,unfammale09.jpg
6,4,13,1,1,1,434.9,capture003 copy.jpg
6,4,14,1,1,1,563.61,capture020 copy.jpg
6,4,15,1,1,1,476.37,unfammale35.jpg
6,4,16,2,1,0,447.74,unfamfemale03.jpg
6,4,17,1,1,1,480.46,capture016 copy.jpg
6,4,18,2,2,1,489.19,unfamfemale24.jpg
6,4,19,1,1,1,393.9,unfammale12.jpg
6,4,20,1,1,1,458.64,unfammale16.jpg
6,4,21,2,2,1,443.4,unfamfemale05.jpg
6,4,22,2,2,1,572.14,unfamfemale39.jpg
6,4,23,1,1,1,492.84,capture011 copy.jpg
6,4,24,2,2,1,445.59,unfamfemale38.jpg
6,5,1,1,1,1,922.23,unfammale33.jpg
6,5,2,2,2,1,450.93,unfamfemale15.jpg
6,5,3,1,1,1,523.63,unfammale28.jpg
6,5,4,2,2,1,500.42,unfamfemale38.jpg
6,5,5,2,2,1,437.15,unfamfemale03.jpg
6,5,6,2,2,1,437.89,unfamfemale05.jpg
6,5,7,2,2,1,462.58,unfamfemale39.jpg
6,5,8,1,1,1,519.35,capture020 copy.jpg
6,5,9,2,2,1,439.94,unfamfemale26.jpg
6,5,10,2,2,1,576.79,unfamfemale20.jpg
6,5,11,2,2,1,585.55,capture001 copy.jpg
6,5,12,1,1,1,578.26,capture013 copy.jpg
6,5,13,1,1,1,482.99,capture012 copy.jpg
6,5,14,1,1,1,443.73,capture016 copy.jpg
6,5,15,1,1,1,508.43,capture003 copy.jpg
6,5,16,2,2,1,493.21,capture002 copy.jpg
6,5,17,1,1,1,477.92,unfammale09.jpg
6,5,18,2,2,1,478.67,unfamfemale24.jpg
6,5,19,1,1,1,607.35,unfammale12.jpg
6,5,20,1,1,1,448.12,unfammale35.jpg
6,5,21,2,2,1,448.86,capture017 copy.jpg
6,5,22,1,1,1,473.56,capture011 copy.jpg
6,5,23,1,1,1,578.34,unfammale16.jpg
6,5,24,2,2,1,547.07,unfamfemale06.jpg
6,6,1,1,1,1,474.32,unfammale16.jpg
6,6,2,2,2,1,507.11,unfamfemale06.jpg
6,6,3,1,1,1,595.87,capture016 copy.jpg
6,6,4,1,1,1,436.6,unfammale28.jpg
6,6,5,2,2,1,461.32,capture017 copy.jpg
6,6,6,2,2,1,590.07,capture002 copy.jpg
6,6,7,2,2,1,502.75,unfamfemale38.jpg
6,6,8,2,2,1,495.53,unfamfemale26.jpg
6,6,9,1,1,1,432.26,unfammale12.jpg
6,6,10,1,1,1,681,capture012 copy.jpg
6,6,11,2,2,1,505.69,unfamfemale15.jpg
6,6,12,2,2,1,490.46,unfamfemale05.jpg
6,6,13,2,2,1,523.15,unfamfemale39.jpg
6,6,14,1,1,1,555.9,capture011 copy.jpg
6,6,15,2,2,1,508.64,unfamfemale24.jpg
6,6,16,2,2,1,525.39,capture001 copy.jpg
6,6,17,1,1,1,518.08,capture013 copy.jpg
6,6,18,1,1,1,486.81,capture003 copy.jpg
6,6,19,1,1,1,527.59,unfammale33.jpg
6,6,20,1,1,1,576.32,unfammale35.jpg
6,6,21,1,1,1,585.05,unfammale09.jpg
6,6,22,2,2,1,553.72,unfamfemale20.jpg
6,6,23,2,2,1,589.15,unfamfemale03.jpg
6,6,24,1,1,1,509.84,capture020 copy.jpg
6,7,1,1,1,1,500.85,unfammale09.jpg
6,7,2,1,1,1,469.61,capture013 copy.jpg
6,7,3,2,2,1,414.34,unfamfemale39.jpg
6,7,4,1,1,1,439.08,capture003 copy.jpg
6,7,5,1,1,1,487.81,capture011 copy.jpg
6,7,6,2,2,1,536.54,unfamfemale03.jpg
6,7,7,1,1,1,521.26,unfammale35.jpg
6,7,8,2,2,1,465.94,capture001 copy.jpg
6,7,9,2,2,1,530.74,unfamfemale38.jpg
6,7,10,2,2,1,459.43,unfamfemale15.jpg
6,7,11,1,1,1,436.2,unfammale16.jpg
6,7,12,2,2,1,540.94,capture002 copy.jpg
6,7,13,1,1,1,509.62,unfammale33.jpg
6,7,14,2,2,1,502.4,unfamfemale06.jpg
6,7,15,2,2,1,470.99,unfamfemale26.jpg
6,7,16,2,2,1,479.85,unfamfemale20.jpg
6,7,17,1,1,1,432.57,unfammale28.jpg
6,7,18,2,2,1,441.32,unfamfemale24.jpg
6,7,19,1,1,1,578,unfammale12.jpg
6,7,20,2,2,1,490.79,unfamfemale05.jpg
6,7,21,1,1,1,435.48,capture020 copy.jpg
6,7,22,1,1,1,444.25,capture016 copy.jpg
6,7,23,1,0,0,0,capture012 copy.jpg
6,7,24,2,2,1,677.72,capture017 copy.jpg
6,8,1,2,2,1,444.65,unfamfemale15.jpg
6,8,2,1,1,1,541.37,unfammale09.jpg
6,8,3,2,2,1,510.14,capture017 copy.jpg
6,8,4,2,2,1,438.82,unfamfemale05.jpg
6,8,5,2,2,1,543.6,unfamfemale39.jpg
6,8,6,1,1,1,576.33,capture016 copy.jpg
6,8,7,1,1,1,537.07,unfammale33.jpg
6,8,8,1,1,1,569.79,unfammale12.jpg
6,8,9,2,2,1,514.54,unfamfemale20.jpg
6,8,10,1,1,1,467.23,capture020 copy.jpg
6,8,11,1,1,1,539.97,unfammale35.jpg
6,8,12,2,2,1,572.73,unfamfemale26.jpg
6,8,13,1,0,0,0,capture011 copy.jpg
6,8,14,2,2,1,606.2,unfamfemale03.jpg
6,8,15,2,2,1,590.9,unfamfemale38.jpg
6,8,16,1,1,1,463.66,unfammale16.jpg
6,8,17,2,2,1,800.38,capture002 copy.jpg
6,8,18,1,1,1,609.13,capture003 copy.jpg
6,8,19,2,2,1,545.86,unfamfemale06.jpg
6,8,20,1,1,1,586.55,capture013 copy.jpg
6,8,21,1,1,1,523.28,capture012 copy.jpg
6,8,22,2,2,1,516.02,unfamfemale24.jpg
6,8,23,1,1,1,604.79,unfammale28.jpg
6,8,24,2,2,1,525.52,capture001 copy.jpg
7,1,1,1,1,1,972.47,unfammale18.jpg
7,1,2,2,2,1,519.89,unfamfemale03.jpg
7,1,3,1,1,1,376.67,capture010 copy.jpg
7,1,4,1,1,1,465.48,unfammale08.jpg
7,1,5,1,1,1,378.26,unfammale38.jpg
7,1,6,2,2,1,387,unfamfemale15.jpg
7,1,7,1,1,1,363.82,unfammale05.jpg
7,1,8,1,1,1,468.56,unfammale21.jpg
7,1,9,2,2,1,509.4,unfamfemale39.jpg
7,1,10,2,2,1,478.16,unfamfemale24.jpg
7,1,11,2,2,1,454.96,capture002 copy.jpg
7,1,12,1,1,1,487.68,unfammale23.jpg
7,1,13,2,2,1,432.45,unfamfemale20.jpg
7,1,14,1,1,1,473.3,unfammale14.jpg
7,1,15,2,2,1,418.09,unfamfemale05.jpg
7,1,16,1,1,1,402.81,unfammale25.jpg
7,1,17,2,2,1,419.65,unfamfemale26.jpg
7,1,18,1,1,1,460.43,unfammale19.jpg
7,1,19,2,2,1,453.14,capture017 copy.jpg
7,1,20,2,2,1,493.97,unfamfemale06.jpg
7,1,21,1,1,1,398.78,unfammale02.jpg
7,1,22,2,2,1,431.57,capture001 copy.jpg
7,1,23,2,2,1,416.32,unfamfemale38.jpg
7,1,24,1,1,1,345.11,unfammale39.jpg
7,2,1,1,1,1,568.12,unfammale08.jpg
7,2,2,1,1,1,448.93,unfammale25.jpg
7,2,3,2,2,1,441.71,unfamfemale15.jpg
7,2,4,1,1,1,386.49,unfammale18.jpg
7,2,5,2,2,1,491.24,capture001 copy.jpg
7,2,6,1,1,1,636,unfammale39.jpg
7,2,7,2,2,1,492.79,capture017 copy.jpg
7,2,8,1,1,1,421.58,unfammale14.jpg
7,2,9,2,2,1,470.41,unfamfemale24.jpg
7,2,10,1,1,1,471.13,capture010 copy.jpg
7,2,11,2,2,1,455.9,unfamfemale38.jpg
7,2,12,1,1,1,456.73,unfammale02.jpg
7,2,13,1,1,1,521.52,unfammale21.jpg
7,2,14,1,1,1,426.31,unfammale19.jpg
7,2,15,1,1,1,419.04,unfammale05.jpg
7,2,16,2,2,1,411.89,unfamfemale05.jpg
7,2,17,2,2,1,524.63,unfamfemale03.jpg
7,2,18,2,2,1,413.43,unfamfemale39.jpg
7,2,19,1,1,1,390.23,unfammale23.jpg
7,2,20,1,1,1,455,unfammale38.jpg
7,2,21,2,2,1,447.8,unfamfemale06.jpg
7,2,22,2,2,1,464.58,capture002 copy.jpg
7,2,23,2,2,1,433.36,unfamfemale20.jpg
7,2,24,2,2,1,474.09,unfamfemale26.jpg
7,3,1,1,1,1,775.16,capture010 copy.jpg
7,3,2,2,2,1,455.92,unfamfemale20.jpg
7,3,3,2,2,1,464.73,unfamfemale39.jpg
7,3,4,1,1,1,441.49,unfammale02.jpg
7,3,5,1,1,1,482.3,unfammale18.jpg
7,3,6,2,2,1,443.08,unfamfemale24.jpg
7,3,7,2,2,1,379.86,unfamfemale26.jpg
7,3,8,1,1,1,436.64,unfammale23.jpg
7,3,9,2,2,1,597.39,unfamfemale15.jpg
7,3,10,1,1,1,470.2,unfammale38.jpg
7,3,11,1,1,1,478.99,unfammale08.jpg
7,3,12,2,2,1,407.78,unfamfemale06.jpg
7,3,13,1,1,1,536.56,unfammale21.jpg
7,3,14,2,2,1,505.3,unfamfemale03.jpg
7,3,15,2,2,1,418.07,capture017 copy.jpg
7,3,16,2,2,1,482.91,unfamfemale05.jpg
7,3,17,1,1,1,499.66,unfammale25.jpg
7,3,18,1,1,1,404.45,unfammale39.jpg
7,3,19,1,1,1,461.24,unfammale05.jpg
7,3,20,1,1,1,502.04,unfammale19.jpg
7,3,21,2,2,1,422.82,capture001 copy.jpg
7,3,22,2,2,1,415.6,capture002 copy.jpg
7,3,23,1,1,1,432.32,unfammale14.jpg
7,3,24,2,2,1,457.17,unfamfemale38.jpg
7,4,1,2,2,1,514.34,unfamfemale38.jpg
7,4,2,1,1,1,475.13,unfammale02.jpg
7,4,3,2,2,1,435.9,unfamfemale20.jpg
7,4,4,2,2,1,412.7,capture002 copy.jpg
7,4,5,1,1,1,453.46,unfammale05.jpg
7,4,6,1,1,1,462.27,unfammale08.jpg
7,4,7,2,2,1,583.05,capture001 copy.jpg
7,4,8,1,1,1,447.78,unfammale14.jpg
7,4,9,2,2,1,440.57,unfamfemale05.jpg
7,4,10,1,1,1,425.4,unfammale25.jpg
7,4,11,2,2,1,474.12,unfamfemale39.jpg
7,4,12,1,1,1,394.93,unfammale38.jpg
7,4,13,1,1,1,459.74,unfammale18.jpg
7,4,14,2,2,1,508.53,unfamfemale03.jpg
7,4,15,2,2,1,445.26,unfamfemale24.jpg
7,4,16,2,2,1,462.09,unfamfemale26.jpg
7,4,17,1,1,1,350.87,capture010 copy.jpg
7,4,18,2,2,1,423.66,unfamfemale06.jpg
7,4,19,1,1,1,424.42,unfammale23.jpg
7,4,20,1,1,1,449.23,unfammale39.jpg
7,4,21,1,1,1,473.96,unfammale21.jpg
7,4,22,1,1,1,458.79,unfammale19.jpg
7,4,23,2,2,1,387.51,capture017 copy.jpg
7,4,24,2,2,1,396.35,unfamfemale15.jpg
7,5,1,2,2,1,470.04,unfamfemale38.jpg
7,5,2,2,2,1,366.78,capture001 copy.jpg
7,5,3,2,2,1,439.59,unfamfemale26.jpg
7,5,4,1,1,1,376.32,unfammale19.jpg
7,5,5,1,1,1,353.14,unfammale23.jpg
7,5,6,1,1,1,505.97,unfammale21.jpg
7,5,7,1,1,1,402.75,unfammale14.jpg
7,5,8,1,1,1,419.53,unfammale39.jpg
7,5,9,2,2,1,420.28,unfamfemale05.jpg
7,5,10,1,1,1,413.04,unfammale02.jpg
7,5,11,2,2,1,429.85,capture002 copy.jpg
7,5,12,2,2,1,478.62,unfamfemale03.jpg
7,5,13,1,1,1,463.41,unfammale25.jpg
7,5,14,1,1,1,408.24,unfammale05.jpg
7,5,15,1,1,1,377.01,unfammale18.jpg
7,5,16,2,2,1,505.79,unfamfemale06.jpg
7,5,17,2,2,1,522.53,unfamfemale20.jpg
7,5,18,2,2,1,531.35,unfamfemale39.jpg
7,5,19,2,2,1,484.11,unfamfemale24.jpg
7,5,20,2,2,1,420.89,capture017 copy.jpg
7,5,21,2,2,1,381.65,unfamfemale15.jpg
7,5,22,1,1,1,390.49,capture010 copy.jpg
7,5,23,1,1,1,343.21,unfammale08.jpg
7,5,24,1,1,1,424.06,unfammale38.jpg
7,6,1,2,2,1,458.16,unfamfemale05.jpg
7,6,2,1,1,1,386.94,unfammale05.jpg
7,6,3,1,1,1,355.72,capture010 copy.jpg
7,6,4,2,2,1,436.47,capture017 copy.jpg
7,6,5,1,1,1,549.24,unfammale23.jpg
7,6,6,2,2,1,486.07,unfamfemale26.jpg
7,6,7,2,2,1,574.85,unfamfemale38.jpg
7,6,8,2,2,1,391.61,unfamfemale06.jpg
7,6,9,1,1,1,456.42,unfammale18.jpg
7,6,10,1,1,1,457.15,unfammale08.jpg
7,6,11,1,1,1,417.99,unfammale02.jpg
7,6,12,1,1,1,354.71,unfammale25.jpg
7,6,13,1,1,1,379.49,unfammale39.jpg
7,6,14,2,2,1,412.33,capture001 copy.jpg
7,6,15,1,1,1,453.12,unfammale21.jpg
7,6,16,2,2,1,421.89,capture002 copy.jpg
7,6,17,2,2,1,334.67,unfamfemale24.jpg
7,6,18,2,2,1,303.46,unfamfemale15.jpg
7,6,19,1,1,1,440.22,unfammale19.jpg
7,6,20,2,2,1,584.99,unfamfemale39.jpg
7,6,21,1,1,1,481.8,unfammale38.jpg
7,6,22,1,1,1,354.57,unfammale14.jpg
7,6,23,2,2,1,371.38,unfamfemale20.jpg
7,6,24,2,2,1,404.11,unfamfemale03.jpg
7,7,1,1,1,1,458.7,unfammale25.jpg
7,7,2,2,2,1,419.44,unfamfemale38.jpg
7,7,3,2,2,1,532.28,unfamfemale20.jpg
7,7,4,2,2,1,381.06,unfamfemale03.jpg
7,7,5,2,2,1,421.79,unfamfemale39.jpg
7,7,6,2,2,1,494.58,capture002 copy.jpg
7,7,7,1,1,1,375.41,unfammale05.jpg
7,7,8,1,1,1,320.19,unfammale23.jpg
7,7,9,1,1,1,352.97,unfammale18.jpg
7,7,10,2,2,1,425.71,unfamfemale26.jpg
7,7,11,2,2,1,426.5,unfamfemale06.jpg
7,7,12,1,1,1,443.29,capture010 copy.jpg
7,7,13,1,1,1,532.08,unfammale39.jpg
7,7,14,1,1,1,404.83,unfammale38.jpg
7,7,15,1,1,1,389.67,unfammale21.jpg
7,7,16,2,2,1,446.42,capture017 copy.jpg
7,7,17,1,1,1,543.2,unfammale14.jpg
7,7,18,2,2,1,495.93,unfamfemale15.jpg
7,7,19,2,2,1,488.79,unfamfemale24.jpg
7,7,20,1,1,1,449.59,unfammale02.jpg
7,7,21,2,2,1,466.33,unfamfemale05.jpg
7,7,22,2,2,1,499.12,capture001 copy.jpg
7,7,23,1,1,1,523.89,unfammale19.jpg
7,7,24,1,1,1,572.72,unfammale08.jpg
7,8,1,2,2,1,475.9,unfamfemale24.jpg
7,8,2,1,1,1,452.73,unfammale08.jpg
7,8,3,1,1,1,389.45,unfammale39.jpg
7,8,4,2,2,1,406.29,capture017 copy.jpg
7,8,5,1,1,1,391.08,unfammale38.jpg
7,8,6,2,2,1,415.82,unfamfemale15.jpg
7,8,7,1,1,1,432.64,unfammale25.jpg
7,8,8,1,1,1,417.38,unfammale18.jpg
7,8,9,1,1,1,458.19,unfammale02.jpg
7,8,10,1,1,1,450.98,unfammale21.jpg
7,8,11,2,2,1,371.77,unfamfemale26.jpg
7,8,12,2,2,1,428.52,capture001 copy.jpg
7,8,13,2,2,1,325.34,capture002 copy.jpg
7,8,14,2,2,1,390.12,unfamfemale03.jpg
7,8,15,1,1,1,438.87,unfammale23.jpg
7,8,16,1,1,1,407.69,unfammale19.jpg
7,8,17,2,2,1,520.48,unfamfemale39.jpg
7,8,18,1,1,1,505.26,unfammale05.jpg
7,8,19,2,2,1,546.01,unfamfemale38.jpg
7,8,20,2,2,1,530.82,unfamfemale06.jpg
7,8,21,2,2,1,411.6,unfamfemale05.jpg
7,8,22,1,1,1,548.39,unfammale14.jpg
7,8,23,2,2,1,501.17,unfamfemale20.jpg
7,8,24,1,1,1,485.9,capture010 copy.jpg
8,1,1,1,1,1,460.72,unfammale12.jpg
8,1,2,2,2,1,496.21,unfamfemale04.jpg
8,1,3,1,1,1,424.88,capture016 copy.jpg
8,1,4,2,2,1,433.64,unfamfemale08.jpg
8,1,5,2,2,1,466.4,unfamfemale21.jpg
8,1,6,1,1,1,443.1,unfammale09.jpg
8,1,7,1,1,1,451.83,unfammale35.jpg
8,1,8,1,1,1,420.57,capture020 copy.jpg
8,1,9,1,1,1,437.32,unfammale33.jpg
8,1,10,2,2,1,454.05,unfamfemale10.jpg
8,1,11,1,1,1,577.4,capture013 copy.jpg
8,1,12,1,1,1,436.87,capture012 copy.jpg
8,1,13,1,1,1,464.27,unfammale16.jpg
8,1,14,2,2,1,475.68,unfamfemale17.jpg
8,1,15,2,2,1,415.02,unfamfemale37.jpg
8,1,16,2,2,1,434.48,capture015 copy.jpg
8,1,17,2,2,1,421.86,unfamfemale40.jpg
8,1,18,1,1,1,449.28,unfammale28.jpg
8,1,19,2,2,1,604.64,capture021 copy.jpg
8,1,20,1,1,1,488.1,capture011 copy.jpg
8,1,21,2,2,1,571.47,unfamfemale01.jpg
8,1,22,2,2,1,406.88,capture005 copy.jpg
8,1,23,2,2,1,434.22,unfamfemale32.jpg
8,1,24,1,1,1,509.61,capture003 copy.jpg
8,2,1,1,1,1,469.25,unfammale35.jpg
8,2,2,1,1,1,437.98,unfammale12.jpg
8,2,3,2,2,1,406.7,unfamfemale40.jpg
8,2,4,2,2,1,383.38,unfamfemale10.jpg
8,2,5,1,1,1,472.15,unfammale09.jpg
8,2,6,1,1,1,440.9,capture011 copy.jpg
8,2,7,1,1,1,465.57,unfammale16.jpg
8,2,8,2,2,1,498.36,unfamfemale37.jpg
8,2,9,1,1,1,450.84,capture012 copy.jpg
8,2,10,2,2,1,451.82,unfamfemale04.jpg
8,2,11,2,2,1,332.49,capture015 copy.jpg
8,2,12,2,2,1,389.28,capture005 copy.jpg
8,2,13,2,2,1,413.77,unfamfemale21.jpg
8,2,14,1,1,1,430.7,capture016 copy.jpg
8,2,15,2,2,1,455.48,unfamfemale01.jpg
8,2,16,2,2,1,544.21,capture021 copy.jpg
8,2,17,1,1,1,416.94,capture003 copy.jpg
8,2,18,2,2,1,449.65,unfamfemale17.jpg
8,2,19,1,1,1,562.37,unfammale28.jpg
8,2,20,1,1,1,579.12,capture020 copy.jpg
8,2,21,1,1,1,451.86,capture013 copy.jpg
8,2,22,2,2,1,412.59,unfamfemale32.jpg
8,2,23,1,1,1,557.27,unfammale33.jpg
8,2,24,2,2,1,486.04,unfamfemale08.jpg
8,3,1,1,1,1,613.92,unfammale28.jpg
8,3,2,1,1,1,406.63,capture020 copy.jpg
8,3,3,1,1,1,399.36,capture003 copy.jpg
8,3,4,2,2,1,424.07,capture005 copy.jpg
8,3,5,1,1,1,480.75,capture013 copy.jpg
8,3,6,2,2,1,425.52,capture015 copy.jpg
8,3,7,1,1,1,442.26,capture016 copy.jpg
8,3,8,2,2,1,411.01,unfamfemale08.jpg
8,3,9,1,1,1,387.71,unfammale16.jpg
8,3,10,2,2,1,447.17,unfamfemale40.jpg
8,3,11,2,2,1,455.82,unfamfemale37.jpg
8,3,12,1,1,1,496.56,unfammale35.jpg
8,3,13,2,2,1,412.01,unfamfemale32.jpg
8,3,14,2,2,1,404.7,unfamfemale04.jpg
8,3,15,2,2,1,469.48,unfamfemale10.jpg
8,3,16,1,1,1,430.21,unfammale09.jpg
8,3,17,1,1,1,609.61,unfammale12.jpg
8,3,18,2,2,1,538.34,unfamfemale17.jpg
8,3,19,1,1,1,667.07,capture011 copy.jpg
8,3,20,2,2,1,491.8,unfamfemale21.jpg
8,3,21,1,1,1,452.53,unfammale33.jpg
8,3,22,2,2,1,525.25,capture021 copy.jpg
8,3,23,2,2,1,453.99,unfamfemale01.jpg
8,3,24,1,1,1,422.67,capture012 copy.jpg
8,4,1,2,2,1,365.86,unfamfemale32.jpg
8,4,2,1,1,1,430.66,capture013 copy.jpg
8,4,3,2,2,1,447.4,unfamfemale01.jpg
8,4,4,1,1,1,472.1,unfammale09.jpg
8,4,5,1,1,1,416.8,unfammale16.jpg
8,4,6,2,2,1,425.56,capture021 copy.jpg
8,4,7,2,2,1,426.3,unfamfemale04.jpg
8,4,8,2,2,1,539.02,capture005 copy.jpg
8,4,9,2,2,1,555.77,unfamfemale37.jpg
8,4,10,1,1,1,476.5,unfammale28.jpg
8,4,11,2,2,1,461.25,unfamfemale17.jpg
8,4,12,1,1,1,493.92,unfammale12.jpg
8,4,13,1,1,1,494.68,capture020 copy.jpg
8,4,14,1,1,1,519.44,unfammale33.jpg
8,4,15,2,2,1,664.14,unfamfemale40.jpg
8,4,16,2,2,1,536.86,unfamfemale21.jpg
8,4,17,2,2,1,401.62,unfamfemale10.jpg
8,4,18,1,1,1,474.35,capture012 copy.jpg
8,4,19,1,1,1,515.08,unfammale35.jpg
8,4,20,1,1,1,547.81,capture003 copy.jpg
8,4,21,2,2,1,532.56,unfamfemale08.jpg
8,4,22,1,1,1,469.29,capture011 copy.jpg
8,4,23,1,1,1,517.96,capture016 copy.jpg
8,4,24,2,2,1,446.74,capture015 copy.jpg
8,5,1,2,2,1,488.55,unfamfemale04.jpg
8,5,2,1,1,1,409.32,unfammale09.jpg
8,5,3,2,2,1,458.05,unfamfemale32.jpg
8,5,4,2,2,1,426.77,unfamfemale10.jpg
8,5,5,1,1,1,427.51,unfammale12.jpg
8,5,6,1,1,1,372.2,capture012 copy.jpg
8,5,7,1,1,1,484.91,unfammale33.jpg
8,5,8,2,2,1,477.7,capture015 copy.jpg
8,5,9,2,2,1,566.44,unfamfemale21.jpg
8,5,10,1,1,1,463.1,unfammale16.jpg
8,5,11,2,2,1,554.54,capture021 copy.jpg
8,5,12,1,1,1,475.3,capture003 copy.jpg
8,5,13,2,2,1,411.98,unfamfemale08.jpg
8,5,14,1,1,1,484.73,capture011 copy.jpg
8,5,15,2,2,1,485.44,unfamfemale40.jpg
8,5,16,2,2,1,494.22,unfamfemale37.jpg
8,5,17,1,1,1,486.91,capture016 copy.jpg
8,5,18,2,2,1,447.68,unfamfemale17.jpg
8,5,19,2,2,1,432.39,unfamfemale01.jpg
8,5,20,1,1,1,473.1,unfammale28.jpg
8,5,21,1,1,1,561.83,unfammale35.jpg
8,5,22,1,1,1,482.61,capture013 copy.jpg
8,5,23,2,2,1,507.34,capture005 copy.jpg
8,5,24,1,1,1,516.07,capture020 copy.jpg
8,6,1,1,1,1,517.77,unfammale28.jpg
8,6,2,1,1,1,454.55,unfammale16.jpg
8,6,3,2,2,1,431.28,capture015 copy.jpg
8,6,4,2,2,1,431.97,unfamfemale21.jpg
8,6,5,1,1,1,440.69,capture013 copy.jpg
8,6,6,2,2,1,473.43,capture005 copy.jpg
8,6,7,2,2,1,426.2,unfamfemale37.jpg
8,6,8,2,2,1,458.91,unfamfemale17.jpg
8,6,9,2,2,1,715.67,unfamfemale04.jpg
8,6,10,1,1,1,596.33,unfammale33.jpg
8,6,11,1,1,1,613.13,capture016 copy.jpg
8,6,12,2,2,1,501.86,unfamfemale08.jpg
8,6,13,2,2,1,494.57,unfamfemale10.jpg
8,6,14,1,1,1,511.31,capture020 copy.jpg
8,6,15,2,2,1,400,unfamfemale01.jpg
8,6,16,1,1,1,376.73,unfammale35.jpg
8,6,17,2,2,1,457.48,unfamfemale40.jpg
8,6,18,1,1,1,450.19,unfammale12.jpg
8,6,19,2,2,1,490.98,capture021 copy.jpg
8,6,20,1,1,1,451.7,capture012 copy.jpg
8,6,21,1,1,1,412.41,capture003 copy.jpg
8,6,22,1,1,1,487.83,unfammale09.jpg
8,6,23,1,1,1,624.52,capture011 copy.jpg
8,6,24,2,2,1,513.26,unfamfemale32.jpg
8,7,1,1,1,1,437.74,unfammale28.jpg
8,7,2,2,2,1,406.48,unfamfemale08.jpg
8,7,3,2,2,1,359.2,unfamfemale01.jpg
8,7,4,1,1,1,463.94,unfammale16.jpg
8,7,5,1,1,1,408.64,capture012 copy.jpg
8,7,6,1,1,1,561.38,capture020 copy.jpg
8,7,7,2,2,1,450.14,capture015 copy.jpg
8,7,8,2,2,1,506.87,unfamfemale21.jpg
8,7,9,1,1,1,483.59,unfammale12.jpg
8,7,10,1,1,1,468.28,unfammale33.jpg
8,7,11,2,2,1,613.03,unfamfemale10.jpg
8,7,12,2,2,1,437.79,unfamfemale04.jpg
8,7,13,1,1,1,462.48,capture011 copy.jpg
8,7,14,2,2,1,447.2,capture005 copy.jpg
8,7,15,1,1,1,535.91,capture016 copy.jpg
8,7,16,2,2,1,528.72,unfamfemale32.jpg
8,7,17,2,2,1,497.41,unfamfemale40.jpg
8,7,18,1,1,1,546.12,unfammale35.jpg
8,7,19,2,2,1,522.9,capture021 copy.jpg
8,7,20,2,2,1,523.61,unfamfemale37.jpg
8,7,21,1,1,1,492.37,capture003 copy.jpg
8,7,22,1,1,1,485.06,unfammale09.jpg
8,7,23,2,2,1,533.84,unfamfemale17.jpg
8,7,24,1,1,1,478.57,capture013 copy.jpg
8,8,1,1,1,1,443.02,capture003 copy.jpg
8,8,2,1,1,1,411.73,capture020 copy.jpg
8,8,3,1,1,1,452.46,unfammale33.jpg
8,8,4,2,2,1,429.21,unfamfemale08.jpg
8,8,5,2,2,1,429.91,unfamfemale04.jpg
8,8,6,1,1,1,630.68,capture012 copy.jpg
8,8,7,1,1,1,383.42,unfammale28.jpg
8,8,8,2,2,1,488.13,unfamfemale32.jpg
8,8,9,2,2,1,520.88,capture021 copy.jpg
8,8,10,2,2,1,473.6,unfamfemale37.jpg
8,8,11,2,2,1,562.35,unfamfemale01.jpg
8,8,12,2,2,1,531.02,unfamfemale40.jpg
8,8,13,2,2,1,628.21,capture005 copy.jpg
8,8,14,1,1,1,500.49,unfammale16.jpg
8,8,15,2,2,1,541.21,unfamfemale10.jpg
8,8,16,1,1,1,525.99,capture011 copy.jpg
8,8,17,2,2,1,726.74,unfamfemale21.jpg
8,8,18,1,1,1,471.4,unfammale35.jpg
8,8,19,2,2,1,536.19,capture015 copy.jpg
8,8,20,2,2,1,536.92,unfamfemale17.jpg
8,8,21,1,1,1,473.65,unfammale09.jpg
8,8,22,1,1,1,586.32,capture016 copy.jpg
8,8,23,1,1,1,539.12,unfammale12.jpg
8,8,24,1,1,1,587.79,capture013 copy.jpg
9,1,1,2,2,1,771.03,unfamfemale40.jpg
9,1,2,1,1,1,518.43,capture010 copy.jpg
9,1,3,1,1,1,559.23,unfammale14.jpg
9,1,4,2,2,1,383.93,unfamfemale04.jpg
9,1,5,2,2,1,440.79,capture021 copy.jpg
9,1,6,2,2,1,489.6,unfamfemale08.jpg
9,1,7,1,1,1,434.35,unfammale25.jpg
9,1,8,1,1,1,555.16,unfammale08.jpg
9,1,9,2,2,1,515.92,unfamfemale17.jpg
9,1,10,1,2,0,556.7,unfammale38.jpg
9,1,11,1,1,1,805.49,unfammale19.jpg
9,1,12,1,1,1,870.27,unfammale21.jpg
9,1,13,1,1,1,535.08,unfammale23.jpg
9,1,14,2,2,1,383.82,unfamfemale37.jpg
9,1,15,2,2,1,416.58,unfamfemale21.jpg
9,1,16,2,2,1,441.38,unfamfemale32.jpg
9,1,17,1,1,1,458.13,unfammale18.jpg
9,1,18,1,1,1,466.96,unfammale05.jpg
9,1,19,2,2,1,412.86,unfamfemale10.jpg
9,1,20,1,1,1,476.52,unfammale39.jpg
9,1,21,1,1,1,565.27,unfammale02.jpg
9,1,22,2,2,1,462.07,capture005 copy.jpg
9,1,23,2,2,1,454.86,unfamfemale01.jpg
9,1,24,2,2,1,391.63,capture015 copy.jpg
9,2,1,1,1,1,570.06,unfammale14.jpg
9,2,2,1,1,1,418.79,unfammale08.jpg
9,2,3,2,2,1,403.6,unfamfemale17.jpg
9,2,4,2,2,1,500.33,capture005 copy.jpg
9,2,5,2,2,1,341.17,unfamfemale40.jpg
9,2,6,2,2,1,485.96,capture021 copy.jpg
9,2,7,2,2,1,374.71,unfamfemale04.jpg
9,2,8,2,2,1,415.5,unfamfemale01.jpg
9,2,9,2,2,1,632.3,unfamfemale21.jpg
9,2,10,2,2,1,393.07,unfamfemale08.jpg
9,2,11,2,2,1,385.82,capture015 copy.jpg
9,2,12,2,2,1,386.63,unfamfemale10.jpg
9,2,13,1,1,1,403.43,unfammale05.jpg
9,2,14,1,1,1,364.18,capture010 copy.jpg
9,2,15,2,2,1,356.95,unfamfemale37.jpg
9,2,16,1,1,1,429.76,unfammale39.jpg
9,2,17,1,1,1,478.5,unfammale21.jpg
9,2,18,1,1,1,559.32,unfammale38.jpg
9,2,19,1,1,1,552.11,unfammale23.jpg
9,2,20,2,2,1,472.9,unfamfemale32.jpg
9,2,21,1,1,1,521.67,unfammale18.jpg
9,2,22,1,1,1,466.47,unfammale25.jpg
9,2,23,1,1,1,547.21,unfammale19.jpg
9,2,24,1,1,1,476,unfammale02.jpg
9,3,1,2,2,1,440.84,unfamfemale17.jpg
9,3,2,2,2,1,500.84,capture021 copy.jpg
9,3,3,1,1,1,546.45,unfammale39.jpg
9,3,4,2,2,1,467.27,unfamfemale21.jpg
9,3,5,2,2,1,460.05,capture005 copy.jpg
9,3,6,1,1,1,604.84,capture010 copy.jpg
9,3,7,2,2,1,565.62,unfamfemale01.jpg
9,3,8,1,1,1,910.4,unfammale38.jpg
9,3,9,2,2,1,519.18,unfamfemale32.jpg
9,3,10,2,2,1,407.89,unfamfemale40.jpg
9,3,11,1,1,1,520.74,unfammale25.jpg
9,3,12,1,1,1,457.47,unfammale08.jpg
9,3,13,1,1,1,578.31,unfammale21.jpg
9,3,14,2,2,1,403.07,capture015 copy.jpg
9,3,15,1,1,1,435.87,unfammale23.jpg
9,3,16,2,2,1,436.62,unfamfemale08.jpg
9,3,17,1,1,1,461.44,unfammale18.jpg
9,3,18,1,1,1,462.17,unfammale14.jpg
9,3,19,1,1,1,438.94,unfammale02.jpg
9,3,20,2,2,1,671.71,unfamfemale04.jpg
9,3,21,1,1,1,496.5,unfammale19.jpg
9,3,22,2,2,1,465.34,unfamfemale37.jpg
9,3,23,1,1,1,418.06,unfammale05.jpg
9,3,24,2,2,1,418.88,unfamfemale10.jpg
9,4,1,1,1,1,740.8,unfammale18.jpg
9,4,2,2,2,1,749.59,capture005 copy.jpg
9,4,3,2,2,1,654.37,capture021 copy.jpg
9,4,4,1,1,1,759.1,unfammale38.jpg
9,4,5,1,1,1,535.89,unfammale19.jpg
9,4,6,1,1,1,400.66,unfammale23.jpg
9,4,7,1,1,1,465.47,unfammale25.jpg
9,4,8,1,1,1,394.28,unfammale39.jpg
9,4,9,2,2,1,395.02,unfamfemale08.jpg
9,4,10,2,2,1,403.79,unfamfemale01.jpg
9,4,11,1,1,1,524.62,unfammale14.jpg
9,4,12,2,2,1,533.37,capture015 copy.jpg
9,4,13,2,2,1,598.17,unfamfemale21.jpg
9,4,14,2,2,1,638.96,unfamfemale32.jpg
9,4,15,2,2,1,575.72,unfamfemale37.jpg
9,4,16,1,1,1,504.47,capture010 copy.jpg
9,4,17,1,1,1,385.28,unfammale08.jpg
9,4,18,1,1,1,466.1,unfammale02.jpg
9,4,19,2,2,1,594.88,unfamfemale10.jpg
9,4,20,2,2,1,547.66,unfamfemale17.jpg
9,4,21,2,2,1,372.4,unfamfemale04.jpg
9,4,22,1,1,1,501.23,unfammale05.jpg
9,4,23,1,1,1,701.97,unfammale21.jpg
9,4,24,2,2,1,446.79,unfamfemale40.jpg
9,5,1,1,1,1,541.28,unfammale25.jpg
9,5,2,2,2,1,486.06,unfamfemale01.jpg
9,5,3,2,2,1,534.81,unfamfemale32.jpg
9,5,4,2,2,1,559.63,unfamfemale37.jpg
9,5,5,2,2,1,424.36,unfamfemale04.jpg
9,5,6,2,2,1,417.19,capture005 copy.jpg
9,5,7,1,1,1,489.92,unfammale02.jpg
9,5,8,1,1,1,370.72,unfammale39.jpg
9,5,9,2,2,1,523.49,unfamfemale40.jpg
9,5,10,1,1,1,540.32,capture010 copy.jpg
9,5,11,2,2,1,629.11,unfamfemale08.jpg
9,5,12,2,2,1,525.89,unfamfemale21.jpg
9,5,13,1,1,1,542.67,unfammale23.jpg
9,5,14,2,2,1,487.41,unfamfemale10.jpg
9,5,15,1,1,1,464.19,unfammale05.jpg
9,5,16,1,1,1,552.98,unfammale18.jpg
9,5,17,1,1,1,433.8,unfammale14.jpg
9,5,18,1,1,1,538.52,unfammale08.jpg
9,5,19,1,1,1,499.32,unfammale38.jpg
9,5,20,1,1,1,436.14,unfammale21.jpg
9,5,21,2,2,1,516.88,capture015 copy.jpg
9,5,22,2,2,1,565.71,capture021 copy.jpg
9,5,23,2,2,1,542.45,unfamfemale17.jpg
9,5,24,1,1,1,527.28,unfammale19.jpg
9,6,1,1,1,1,483.94,unfammale25.jpg
9,6,2,2,2,1,436.73,unfamfemale21.jpg
9,6,3,2,2,1,341.55,unfamfemale40.jpg
9,6,4,1,1,1,350.28,unfammale14.jpg
9,6,5,2,2,1,519.14,unfamfemale37.jpg
9,6,6,1,1,1,647.89,unfammale02.jpg
9,6,7,1,1,1,528.69,unfammale21.jpg
9,6,8,2,2,1,425.47,unfamfemale10.jpg
9,6,9,2,2,1,506.21,capture021 copy.jpg
9,6,10,2,2,1,411.04,unfamfemale32.jpg
9,6,11,2,2,1,411.81,capture005 copy.jpg
9,6,12,2,2,1,660.6,unfamfemale01.jpg
9,6,13,1,1,1,557.39,unfammale08.jpg
9,6,14,2,2,1,502.17,unfamfemale08.jpg
9,6,15,1,1,1,638.94,unfammale23.jpg
9,6,16,1,1,1,391.69,unfammale18.jpg
9,6,17,2,2,1,440.51,unfamfemale17.jpg
9,6,18,2,2,1,377.3,capture015 copy.jpg
9,6,19,1,1,1,466.08,unfammale05.jpg
9,6,20,1,1,1,402.86,capture010 copy.jpg
9,6,21,2,2,1,451.64,unfamfemale04.jpg
9,6,22,1,1,1,548.38,unfammale19.jpg
9,6,23,1,1,1,437.21,unfammale38.jpg
9,6,24,1,1,1,405.98,unfammale39.jpg
9,7,1,1,1,1,538.38,unfammale39.jpg
9,7,2,1,1,1,347.14,unfammale25.jpg
9,7,3,2,2,1,443.95,unfamfemale01.jpg
9,7,4,2,2,1,324.73,capture015 copy.jpg
9,7,5,1,1,1,445.49,unfammale02.jpg
9,7,6,1,1,1,382.27,unfammale21.jpg
9,7,7,2,2,1,391.07,capture005 copy.jpg
9,7,8,1,1,1,439.87,unfammale19.jpg
9,7,9,2,2,1,416.65,unfamfemale21.jpg
9,7,10,2,2,1,449.4,unfamfemale17.jpg
9,7,11,2,2,1,586.2,unfamfemale10.jpg
9,7,12,1,1,1,410.96,capture010 copy.jpg
9,7,13,2,2,1,467.78,unfamfemale40.jpg
9,7,14,2,2,1,364.53,unfamfemale08.jpg
9,7,15,1,1,1,597.29,unfammale38.jpg
9,7,16,1,1,1,534.07,unfammale14.jpg
9,7,17,2,2,1,486.9,unfamfemale37.jpg
9,7,18,1,1,1,503.69,unfammale18.jpg
9,7,19,2,2,1,472.43,unfamfemale04.jpg
9,7,20,2,2,1,529.25,capture021 copy.jpg
9,7,21,1,1,1,546.03,unfammale05.jpg
9,7,22,1,1,1,474.79,unfammale08.jpg
9,7,23,1,1,1,643.56,unfammale23.jpg
9,7,24,2,2,1,588.33,unfamfemale32.jpg
9,8,1,2,2,1,481.2,unfamfemale21.jpg
9,8,2,1,1,1,601.97,unfammale38.jpg
9,8,3,2,2,1,602.69,unfamfemale08.jpg
9,8,4,2,2,1,491.53,capture015 copy.jpg
9,8,5,1,1,1,684.31,unfammale05.jpg
9,8,6,1,1,1,541.05,unfammale19.jpg
9,8,7,1,1,1,429.87,unfammale39.jpg
9,8,8,2,2,1,550.66,unfamfemale17.jpg
9,8,9,2,2,1,567.44,unfamfemale40.jpg
9,8,10,2,2,1,776.22,capture005 copy.jpg
9,8,11,2,2,1,433,unfamfemale04.jpg
9,8,12,2,2,1,505.73,unfamfemale37.jpg
9,8,13,2,2,1,426.53,unfamfemale01.jpg
9,8,14,2,2,1,555.35,unfamfemale10.jpg
9,8,15,1,1,1,524.1,unfammale08.jpg
9,8,16,1,1,1,620.9,unfammale23.jpg
9,8,17,2,2,1,533.7,capture021 copy.jpg
9,8,18,1,1,1,614.46,unfammale25.jpg
9,8,19,1,1,1,519.21,unfammale18.jpg
9,8,20,1,1,1,536,unfammale14.jpg
9,8,21,2,2,1,640.82,unfamfemale32.jpg
9,8,22,1,1,1,505.6,unfammale02.jpg
9,8,23,1,1,1,442.39,unfammale21.jpg
9,8,24,1,1,1,515.16,capture010 copy.jpg
10,1,1,1,1,1,538.63,unfammale28.jpg
10,1,2,2,2,1,422.1,capture017 copy.jpg
10,1,3,1,1,1,462.78,capture016 copy.jpg
10,1,4,2,2,1,503.52,capture002 copy.jpg
10,1,5,1,1,1,576.28,capture003 copy.jpg
10,1,6,2,2,1,456.95,unfamfemale15.jpg
10,1,7,2,2,1,529.72,unfamfemale38.jpg
10,1,8,1,1,1,538.47,capture020 copy.jpg
10,1,9,2,2,1,539.2,unfamfemale24.jpg
10,1,10,2,2,1,475.94,unfamfemale26.jpg
10,1,11,1,1,1,575.29,capture011 copy.jpg
10,1,12,1,1,1,514.73,unfammale35.jpg
10,1,13,1,1,1,574.11,capture013 copy.jpg
10,1,14,2,2,1,545.53,unfamfemale03.jpg
10,1,15,2,2,1,444.89,unfamfemale20.jpg
10,1,16,1,1,1,448.37,unfammale16.jpg
10,1,17,1,1,1,531.73,unfammale33.jpg
10,1,18,1,0,0,0,capture012 copy.jpg
10,1,19,1,1,1,570.56,unfammale09.jpg
10,1,20,1,1,1,597.98,unfammale12.jpg
10,1,21,2,2,1,489.35,unfamfemale05.jpg
10,1,22,2,2,1,442.06,unfamfemale06.jpg
10,1,23,2,2,1,402.8,capture001 copy.jpg
10,1,24,2,2,1,382.22,unfamfemale39.jpg
10,2,1,1,1,1,564.58,unfammale33.jpg
10,2,2,1,1,1,533.29,unfammale12.jpg
10,2,3,2,2,1,630.03,capture017 copy.jpg
10,2,4,1,1,1,566.74,capture016 copy.jpg
10,2,5,2,2,1,703.49,unfamfemale39.jpg
10,2,6,1,1,1,456.2,unfammale28.jpg
10,2,7,2,0,0,0,unfamfemale26.jpg
10,2,8,2,2,1,601.62,unfamfemale05.jpg
10,2,9,2,2,1,530.41,capture002 copy.jpg
10,2,10,2,2,1,515.1,capture001 copy.jpg
10,2,11,1,1,1,539.86,unfammale35.jpg
10,2,12,2,2,1,516.6,unfamfemale06.jpg
10,2,13,2,2,1,1197.3,unfamfemale38.jpg
10,2,14,2,2,1,542.01,unfamfemale03.jpg
10,2,15,2,2,1,470.76,unfamfemale20.jpg
10,2,16,1,1,1,479.51,unfammale09.jpg
10,2,17,2,2,1,416.19,unfamfemale15.jpg
10,2,18,1,1,1,440.96,unfammale16.jpg
10,2,19,1,1,1,473.71,capture003 copy.jpg
10,2,20,1,1,1,474.42,capture013 copy.jpg
10,2,21,2,2,1,491.16,unfamfemale24.jpg
10,2,22,1,1,1,555.88,capture011 copy.jpg
10,2,23,1,1,1,468.6,capture020 copy.jpg
10,2,24,1,1,1,509.36,capture012 copy.jpg
10,3,1,1,1,1,513.73,unfammale28.jpg
10,3,2,2,2,1,474.48,unfamfemale05.jpg
10,3,3,2,2,1,1099.23,unfamfemale26.jpg
10,3,4,1,1,1,515.96,unfammale16.jpg
10,3,5,1,1,1,508.73,unfammale12.jpg
10,3,6,2,2,1,501.46,unfamfemale20.jpg
10,3,7,2,2,1,558.16,capture002 copy.jpg
10,3,8,2,2,1,646.93,unfamfemale39.jpg
10,3,9,1,1,1,479.62,capture003 copy.jpg
10,3,10,1,1,1,504.37,capture016 copy.jpg
10,3,11,1,1,1,481.11,capture020 copy.jpg
10,3,12,2,2,1,425.84,unfamfemale15.jpg
10,3,13,2,2,1,442.57,unfamfemale06.jpg
10,3,14,1,1,1,483.26,unfammale35.jpg
10,3,15,2,2,1,435.99,unfamfemale38.jpg
10,3,16,2,2,1,412.76,unfamfemale24.jpg
10,3,17,1,1,1,461.5,capture011 copy.jpg
10,3,18,2,2,1,558.2,capture001 copy.jpg
10,3,19,1,1,1,574.9,capture012 copy.jpg
10,3,20,1,1,1,463.63,capture013 copy.jpg
10,3,21,1,1,1,512.4,unfammale33.jpg
10,3,22,1,1,1,529.13,unfammale09.jpg
10,3,23,2,0,0,0,unfamfemale03.jpg
10,3,24,2,2,1,514.59,capture017 copy.jpg
10,4,1,2,2,1,818.07,unfamfemale38.jpg
10,4,2,2,2,1,466.74,unfamfemale39.jpg
10,4,3,1,1,1,435.51,unfammale12.jpg
10,4,4,1,1,1,412.23,capture012 copy.jpg
10,4,5,2,2,1,444.97,capture017 copy.jpg
10,4,6,2,2,1,477.65,unfamfemale24.jpg
10,4,7,1,1,1,542.43,capture016 copy.jpg
10,4,8,1,1,1,455.16,unfammale09.jpg
10,4,9,1,1,1,463.89,capture013 copy.jpg
10,4,10,2,2,1,504.61,unfamfemale03.jpg
10,4,11,2,2,1,569.36,capture002 copy.jpg
10,4,12,1,1,1,586.09,capture011 copy.jpg
10,4,13,2,2,1,546.82,unfamfemale15.jpg
10,4,14,1,1,1,587.5,capture020 copy.jpg
10,4,15,2,2,1,612.25,unfamfemale26.jpg
10,4,16,2,2,1,645.01,unfamfemale05.jpg
10,4,17,2,2,1,549.74,unfamfemale20.jpg
10,4,18,1,1,1,521.13,capture003 copy.jpg
10,4,19,1,1,1,409.87,unfammale16.jpg
10,4,20,1,1,1,450.57,unfammale28.jpg
10,4,21,2,2,1,667.34,unfamfemale06.jpg
10,4,22,1,1,1,836.08,unfammale33.jpg
10,4,23,1,1,1,548.8,unfammale35.jpg
10,4,24,2,2,1,565.53,capture001 copy.jpg
10,5,1,1,1,1,615.62,capture016 copy.jpg
10,5,2,2,2,1,440.35,capture017 copy.jpg
10,5,3,1,1,1,449.1,unfammale12.jpg
10,5,4,2,2,1,417.83,unfamfemale06.jpg
10,5,5,2,2,1,490.58,capture001 copy.jpg
10,5,6,2,2,1,531.31,unfamfemale26.jpg
10,5,7,2,2,1,436.04,unfamfemale38.jpg
10,5,8,2,2,1,468.71,unfamfemale20.jpg
10,5,9,2,2,1,549.43,unfamfemale05.jpg
10,5,10,1,1,1,494.22,capture003 copy.jpg
10,5,11,1,1,1,462.93,capture013 copy.jpg
10,5,12,2,2,1,543.7,capture002 copy.jpg
10,5,13,1,1,1,448.38,unfammale33.jpg
10,5,14,1,1,1,441.13,unfammale16.jpg
10,5,15,1,1,1,425.83,unfammale35.jpg
10,5,16,2,2,1,546.62,unfamfemale24.jpg
10,5,17,1,1,1,459.35,unfammale09.jpg
10,5,18,2,2,1,460.06,unfamfemale15.jpg
10,5,19,1,1,1,532.76,unfammale28.jpg
10,5,20,2,2,1,493.49,unfamfemale03.jpg
10,5,21,1,1,1,494.25,capture011 copy.jpg
10,5,22,2,2,1,519.01,unfamfemale39.jpg
10,5,23,1,1,1,471.72,capture012 copy.jpg
10,5,24,1,1,1,560.41,capture020 copy.jpg
10,6,1,1,1,1,666.21,unfammale33.jpg
10,6,2,1,1,1,482.95,unfammale35.jpg
10,6,3,1,1,1,403.71,capture020 copy.jpg
10,6,4,2,0,0,0,unfamfemale06.jpg
10,6,5,2,2,1,357.17,unfamfemale24.jpg
10,6,6,1,0,0,0,unfammale12.jpg
10,6,7,1,1,1,582.66,capture011 copy.jpg
10,6,8,2,2,1,479.36,unfamfemale03.jpg
10,6,9,1,1,1,624.11,capture016 copy.jpg
10,6,10,2,0,0,0,capture002 copy.jpg
10,6,11,1,1,1,569.53,capture013 copy.jpg
10,6,12,2,2,1,434.29,unfamfemale38.jpg
10,6,13,2,2,1,378.99,unfamfemale20.jpg
10,6,14,1,1,1,491.76,capture012 copy.jpg
10,6,15,2,2,1,444.46,capture001 copy.jpg
10,6,16,1,1,1,429.22,unfammale09.jpg
10,6,17,2,2,1,413.94,unfamfemale26.jpg
10,6,18,2,2,1,422.69,unfamfemale05.jpg
10,6,19,1,1,1,431.42,capture003 copy.jpg
10,6,20,1,1,1,456.14,unfammale28.jpg
10,6,21,2,2,1,504.84,unfamfemale15.jpg
10,6,22,1,1,1,521.61,unfammale16.jpg
10,6,23,2,2,1,578.35,capture017 copy.jpg
10,6,24,2,2,1,571.02,unfamfemale39.jpg
10,7,1,1,1,1,391.67,unfammale12.jpg
10,7,2,2,2,1,536.41,capture001 copy.jpg
10,7,3,1,1,1,505.14,unfammale33.jpg
10,7,4,1,1,1,673.89,unfammale28.jpg
10,7,5,1,1,1,514.6,unfammale16.jpg
10,7,6,2,2,1,467.31,unfamfemale20.jpg
10,7,7,2,2,1,452.05,unfamfemale05.jpg
10,7,8,1,1,1,468.81,capture020 copy.jpg
10,7,9,1,0,0,0,capture011 copy.jpg
10,7,10,2,1,0,693.73,unfamfemale39.jpg
10,7,11,2,2,1,686.98,unfamfemale06.jpg
10,7,12,2,2,1,519.71,unfamfemale15.jpg
10,7,13,1,1,1,584.47,capture013 copy.jpg
10,7,14,2,2,1,585.12,unfamfemale26.jpg
10,7,15,2,2,1,617.87,unfamfemale03.jpg
10,7,16,1,0,0,0,capture016 copy.jpg
10,7,17,1,1,1,563.35,unfammale35.jpg
10,7,18,2,2,1,596.11,capture017 copy.jpg
10,7,19,1,0,0,0,capture003 copy.jpg
10,7,20,2,2,1,461.53,unfamfemale38.jpg
10,7,21,2,2,1,534.26,capture002 copy.jpg
10,7,22,1,1,1,471,unfammale09.jpg
10,7,23,1,0,0,0,capture012 copy.jpg
10,7,24,2,2,1,504.5,unfamfemale24.jpg
10,8,1,1,1,1,737.52,unfammale16.jpg
10,8,2,1,1,1,602.29,unfammale09.jpg
10,8,3,2,2,1,427.02,unfamfemale20.jpg
10,8,4,1,1,1,459.75,capture020 copy.jpg
10,8,5,2,2,1,556.43,unfamfemale03.jpg
10,8,6,2,2,1,373.21,capture017 copy.jpg
10,8,7,2,2,1,749.95,unfamfemale39.jpg
10,8,8,2,2,1,606.65,capture002 copy.jpg
10,8,9,1,1,1,623.41,capture003 copy.jpg
10,8,10,2,1,0,352.13,unfamfemale26.jpg
10,8,11,2,2,1,440.81,unfamfemale15.jpg
10,8,12,2,2,1,457.57,unfamfemale06.jpg
10,8,13,2,2,1,578.31,capture001 copy.jpg
10,8,14,1,1,1,435.01,unfammale35.jpg
10,8,15,2,2,1,363.75,unfamfemale24.jpg
10,8,16,1,1,1,476.5,capture013 copy.jpg
10,8,17,1,1,1,533.21,capture012 copy.jpg
10,8,18,2,2,1,589.98,unfamfemale05.jpg
10,8,19,1,1,1,670.69,unfammale12.jpg
10,8,20,1,1,1,511.44,unfammale33.jpg
10,8,21,1,1,1,656.18,capture016 copy.jpg
10,8,22,2,2,1,499.52,unfamfemale38.jpg
10,8,23,1,0,0,0,capture011 copy.jpg
10,8,24,1,1,1,388.99,unfammale28.jpg
11,1,1,1,1,1,544.83,unfammale05.jpg
11,1,2,2,1,0,708.25,unfamfemale39.jpg
11,1,3,1,1,1,757.02,unfammale02.jpg
11,1,4,2,2,1,573.86,unfamfemale15.jpg
11,1,5,2,2,1,542.58,unfamfemale26.jpg
11,1,6,1,1,1,599.42,unfammale23.jpg
11,1,7,1,1,1,584.17,capture010 copy.jpg
11,1,8,1,1,1,512.97,unfammale08.jpg
11,1,9,1,1,1,505.73,unfammale19.jpg
11,1,10,1,1,1,458.55,unfammale18.jpg
11,1,11,1,1,1,443.33,unfammale25.jpg
11,1,12,2,2,1,540.07,unfamfemale20.jpg
11,1,13,2,2,1,540.87,unfamfemale05.jpg
11,1,14,1,1,1,445.62,unfammale14.jpg
11,1,15,1,1,1,414.43,unfammale39.jpg
11,1,16,2,2,1,519.19,capture001 copy.jpg
11,1,17,2,2,1,623.98,unfamfemale03.jpg
11,1,18,2,2,1,616.73,unfamfemale38.jpg
11,1,19,1,1,1,625.54,unfammale21.jpg
11,1,20,2,2,1,570.33,capture017 copy.jpg
11,1,21,1,1,1,579.09,unfammale38.jpg
11,1,22,2,2,1,579.88,unfamfemale06.jpg
11,1,23,2,2,1,508.71,capture002 copy.jpg
11,1,24,2,2,1,493.5,unfamfemale24.jpg
11,2,1,1,1,1,604.11,unfammale25.jpg
11,2,2,2,2,1,532.83,unfamfemale24.jpg
11,2,3,1,1,1,597.67,unfammale02.jpg
11,2,4,2,2,1,534.45,unfamfemale20.jpg
11,2,5,2,2,1,447.23,unfamfemale38.jpg
11,2,6,2,2,1,423.97,unfamfemale05.jpg
11,2,7,2,1,0,632.8,unfamfemale39.jpg
11,2,8,2,2,1,521.54,unfamfemale15.jpg
11,2,9,2,2,1,490.36,capture002 copy.jpg
11,2,10,1,1,1,571.1,unfammale23.jpg
11,2,11,2,2,1,843.91,capture001 copy.jpg
11,2,12,1,1,1,492.65,unfammale14.jpg
11,2,13,1,1,1,509.49,unfammale19.jpg
11,2,14,1,1,1,390.28,unfammale39.jpg
11,2,15,2,2,1,551.05,unfamfemale26.jpg
11,2,16,1,1,1,615.82,unfammale38.jpg
11,2,17,1,1,1,480.56,unfammale18.jpg
11,2,18,2,2,1,513.4,unfamfemale06.jpg
11,2,19,1,1,1,474.17,capture010 copy.jpg
11,2,20,1,1,1,402.94,unfammale21.jpg
11,2,21,2,2,1,555.76,capture017 copy.jpg
11,2,22,1,1,1,492.53,unfammale08.jpg
11,2,23,1,1,1,493.27,unfammale05.jpg
11,2,24,2,2,1,630.07,unfamfemale03.jpg
11,3,1,1,1,1,559.91,unfammale14.jpg
11,3,2,1,1,1,824.73,unfammale38.jpg
11,3,3,2,2,1,633.51,capture002 copy.jpg
11,3,4,2,2,1,450.23,unfamfemale38.jpg
11,3,5,2,1,0,531.03,unfamfemale39.jpg
11,3,6,2,2,1,451.83,capture017 copy.jpg
11,3,7,1,1,1,452.62,unfammale08.jpg
11,3,8,1,1,1,445.36,unfammale21.jpg
11,3,9,1,1,1,366.17,unfammale05.jpg
11,3,10,2,2,1,454.98,unfamfemale20.jpg
11,3,11,2,2,1,503.72,unfamfemale05.jpg
11,3,12,1,1,1,464.52,unfammale18.jpg
11,3,13,2,1,0,801.27,unfamfemale15.jpg
11,3,14,2,2,1,634.07,unfamfemale24.jpg
11,3,15,1,1,1,578.9,unfammale23.jpg
11,3,16,2,2,1,619.68,unfamfemale03.jpg
11,3,17,2,2,1,580.4,capture001 copy.jpg
11,3,18,2,2,1,493.24,unfamfemale26.jpg
11,3,19,1,1,1,541.99,capture010 copy.jpg
11,3,20,1,1,1,470.81,unfammale39.jpg
11,3,21,1,1,1,519.59,unfammale19.jpg
11,3,22,1,1,1,520.33,unfammale02.jpg
11,3,23,1,1,1,625.16,unfammale25.jpg
11,3,24,2,2,1,489.93,unfamfemale06.jpg
11,4,1,1,1,1,611.56,unfammale23.jpg
11,4,2,2,1,0,596.34,unfamfemale39.jpg
11,4,3,2,2,1,525.14,unfamfemale06.jpg
11,4,4,1,1,1,485.93,unfammale21.jpg
11,4,5,2,2,1,582.65,unfamfemale05.jpg
11,4,6,2,2,1,583.44,unfamfemale38.jpg
11,4,7,1,1,1,496.24,unfammale18.jpg
11,4,8,2,2,1,545.06,unfamfemale15.jpg
11,4,9,1,1,1,529.78,unfammale14.jpg
11,4,10,1,1,1,770.57,capture010 copy.jpg
11,4,11,2,2,1,435.4,unfamfemale24.jpg
11,4,12,2,2,1,564.19,capture001 copy.jpg
11,4,13,1,1,1,508.92,unfammale05.jpg
11,4,14,2,2,1,565.75,unfamfemale20.jpg
11,4,15,1,1,1,558.52,unfammale38.jpg
11,4,16,2,2,1,455.3,capture002 copy.jpg
11,4,17,1,1,1,464.04,unfammale39.jpg
11,4,18,1,1,1,536.91,unfammale08.jpg
11,4,19,2,2,1,481.6,capture017 copy.jpg
11,4,20,1,1,1,482.45,unfammale02.jpg
11,4,21,2,2,1,563.23,unfamfemale26.jpg
11,4,22,2,2,1,436.01,unfamfemale03.jpg
11,4,23,1,1,1,508.8,unfammale19.jpg
11,4,24,1,1,1,605.58,unfammale25.jpg
11,5,1,1,1,1,462.22,unfammale39.jpg
11,5,2,2,2,1,534.99,unfamfemale06.jpg
11,5,3,2,2,1,511.75,unfamfemale03.jpg
11,5,4,2,2,1,464.49,capture002 copy.jpg
11,5,5,1,1,1,681.33,unfammale18.jpg
11,5,6,2,2,1,618.06,unfamfemale24.jpg
11,5,7,1,1,1,514.88,unfammale38.jpg
11,5,8,1,1,1,435.67,unfammale19.jpg
11,5,9,2,2,1,468.42,unfamfemale20.jpg
11,5,10,2,2,1,421.23,capture017 copy.jpg
11,5,11,1,1,1,493.97,unfammale02.jpg
11,5,12,1,1,1,502.79,unfammale05.jpg
11,5,13,2,2,1,591.57,capture001 copy.jpg
11,5,14,1,1,1,440.35,unfammale08.jpg
11,5,15,1,1,1,513.16,capture010 copy.jpg
11,5,16,1,1,1,441.94,unfammale21.jpg
11,5,17,2,2,1,482.7,unfamfemale38.jpg
11,5,18,1,1,1,507.47,unfammale14.jpg
11,5,19,2,2,1,492.29,unfamfemale05.jpg
11,5,20,1,1,1,421.07,unfammale23.jpg
11,5,21,2,2,1,509.82,unfamfemale15.jpg
11,5,22,1,1,1,606.62,unfammale25.jpg
11,5,23,2,1,0,543.42,unfamfemale39.jpg
11,5,24,2,2,1,464.14,unfamfemale26.jpg
11,6,1,2,2,1,548.36,capture017 copy.jpg
11,6,2,2,0,0,0,unfamfemale15.jpg
11,6,3,1,1,1,656.66,unfammale19.jpg
11,6,4,1,1,1,537.42,unfammale18.jpg
11,6,5,2,2,1,522.17,capture002 copy.jpg
11,6,6,2,2,1,531.01,unfamfemale06.jpg
11,6,7,1,1,1,715.79,unfammale21.jpg
11,6,8,2,0,0,0,unfamfemale26.jpg
11,6,9,1,1,1,541.31,unfammale23.jpg
11,6,10,2,2,1,574.14,unfamfemale38.jpg
11,6,11,1,1,1,526.89,unfammale05.jpg
11,6,12,1,1,1,471.7,unfammale02.jpg
11,6,13,1,1,1,512.46,unfammale08.jpg
11,6,14,2,1,0,649.27,unfamfemale39.jpg
11,6,15,2,2,1,562,unfamfemale03.jpg
11,6,16,2,2,1,498.77,unfamfemale05.jpg
11,6,17,2,2,1,451.59,unfamfemale24.jpg
11,6,18,2,2,1,476.4,capture001 copy.jpg
11,6,19,1,1,1,565.17,unfammale38.jpg
11,6,20,2,2,1,597.96,unfamfemale20.jpg
11,6,21,1,1,1,574.75,unfammale25.jpg
11,6,22,1,1,1,487.53,capture010 copy.jpg
11,6,23,1,1,1,400.31,unfammale14.jpg
11,6,24,1,1,1,329.01,unfammale39.jpg
11,7,1,1,1,1,501.88,unfammale08.jpg
11,7,2,1,1,1,358.66,unfammale14.jpg
11,7,3,1,1,1,351.41,capture010 copy.jpg
11,7,4,2,1,0,320.2,capture002 copy.jpg
11,7,5,2,2,1,585.01,capture001 copy.jpg
11,7,6,1,1,1,537.79,unfammale18.jpg
11,7,7,1,1,1,466.57,unfammale39.jpg
11,7,8,2,2,1,459.31,unfamfemale24.jpg
11,7,9,2,1,0,500.14,unfamfemale39.jpg
11,7,10,2,0,0,0,unfamfemale38.jpg
11,7,11,1,1,1,477.65,unfammale21.jpg
11,7,12,1,1,1,422.44,unfammale02.jpg
11,7,13,1,1,1,359.23,unfammale38.jpg
11,7,14,2,2,1,496,unfamfemale03.jpg
11,7,15,2,2,1,440.84,capture017 copy.jpg
11,7,16,2,2,1,513.61,unfamfemale06.jpg
11,7,17,2,2,1,482.4,unfamfemale05.jpg
11,7,18,2,2,1,555.17,unfamfemale20.jpg
11,7,19,1,1,1,491.97,unfammale05.jpg
11,7,20,1,1,1,508.74,unfammale19.jpg
11,7,21,2,2,1,485.53,unfamfemale15.jpg
11,7,22,1,1,1,598.28,unfammale23.jpg
11,7,23,1,1,1,567.1,unfammale25.jpg
11,7,24,2,2,1,615.88,unfamfemale26.jpg
11,8,1,1,1,1,480.82,unfammale21.jpg
11,8,2,1,1,1,449.57,unfammale39.jpg
11,8,3,1,1,1,442.36,unfammale18.jpg
11,8,4,2,2,1,499.2,capture002 copy.jpg
11,8,5,2,2,1,411.98,unfamfemale24.jpg
11,8,6,1,1,1,516.76,capture010 copy.jpg
11,8,7,1,1,1,573.54,unfammale25.jpg
11,8,8,2,2,1,598.27,unfamfemale15.jpg
11,8,9,2,2,1,599.1,unfamfemale03.jpg
11,8,10,2,0,0,0,unfamfemale06.jpg
11,8,11,1,1,1,624.67,unfammale02.jpg
11,8,12,1,1,1,425.37,unfammale08.jpg
11,8,13,2,2,1,562.23,unfamfemale38.jpg
11,8,14,1,1,1,571.01,unfammale23.jpg
11,8,15,2,2,1,531.74,unfamfemale20.jpg
11,8,16,1,1,1,508.52,unfammale38.jpg
11,8,17,2,2,1,661.35,capture017 copy.jpg
11,8,18,2,2,1,438.1,unfamfemale05.jpg
11,8,19,1,1,1,502.9,unfammale19.jpg
11,8,20,2,2,1,543.66,unfamfemale26.jpg
11,8,21,2,2,1,488.47,capture001 copy.jpg
11,8,22,2,1,0,513.22,unfamfemale39.jpg
11,8,23,1,1,1,666.07,unfammale05.jpg
11,8,24,1,1,1,450.84,unfammale14.jpg
12,1,1,2,2,1,458.41,capture005 copy.jpg
12,1,2,2,2,1,509.8,unfamfemale21.jpg
12,1,3,2,2,1,398.48,unfamfemale37.jpg
12,1,4,1,1,1,343.21,unfammale28.jpg
12,1,5,2,2,1,360,capture021 copy.jpg
12,1,6,1,1,1,400.72,capture020 copy.jpg
12,1,7,2,2,1,385.39,unfamfemale10.jpg
12,1,8,1,1,1,370.18,unfammale12.jpg
12,1,9,1,1,1,370.91,unfammale33.jpg
12,1,10,1,1,1,339.6,capture003 copy.jpg
12,1,11,2,1,0,374.98,unfamfemale01.jpg
12,1,12,1,1,1,418.42,capture016 copy.jpg
12,1,13,2,2,1,405.82,unfamfemale40.jpg
12,1,14,2,2,1,361.17,unfamfemale08.jpg
12,1,15,1,1,1,396.63,unfammale35.jpg
12,1,16,2,2,1,376.06,unfamfemale04.jpg
12,1,17,1,1,1,379.38,capture012 copy.jpg
12,1,18,1,1,1,334.88,unfammale09.jpg
12,1,19,1,1,1,370.26,capture013 copy.jpg
12,1,20,2,2,1,405.68,unfamfemale32.jpg
12,1,21,1,1,1,377.01,unfammale16.jpg
12,1,22,2,2,1,372.43,unfamfemale17.jpg
12,1,23,1,1,1,413.18,capture011 copy.jpg
12,1,24,2,2,1,400.57,capture015 copy.jpg
12,2,1,2,2,1,426.6,unfamfemale08.jpg
12,2,2,1,1,1,387.33,unfammale33.jpg
12,2,3,2,2,1,484.06,unfamfemale37.jpg
12,2,4,2,2,1,372.78,unfamfemale17.jpg
12,2,5,2,2,1,437.46,capture021 copy.jpg
12,2,6,1,1,1,390.23,unfammale12.jpg
12,2,7,2,2,1,422.98,unfamfemale10.jpg
12,2,8,2,2,1,375.71,unfamfemale32.jpg
12,2,9,1,1,1,352.44,capture012 copy.jpg
12,2,10,2,2,1,361.13,capture015 copy.jpg
12,2,11,2,2,1,420.55,unfamfemale40.jpg
12,2,12,1,1,1,485.31,capture013 copy.jpg
12,2,13,1,1,1,350.04,capture003 copy.jpg
12,2,14,1,2,0,438.75,capture011 copy.jpg
12,2,15,2,2,1,455.5,unfamfemale01.jpg
12,2,16,1,1,1,424.2,capture016 copy.jpg
12,2,17,1,1,1,408.96,unfammale28.jpg
12,2,18,2,2,1,409.63,unfamfemale04.jpg
12,2,19,1,1,1,458.42,unfammale35.jpg
12,2,20,1,1,1,539.11,unfammale16.jpg
12,2,21,1,1,1,371.88,capture020 copy.jpg
12,2,22,1,1,1,356.57,unfammale09.jpg
12,2,23,2,2,1,517.35,unfamfemale21.jpg
12,2,24,2,2,1,510.02,capture005 copy.jpg
12,3,1,2,2,1,506.85,unfamfemale04.jpg
12,3,2,1,1,1,499.59,unfammale33.jpg
12,3,3,1,1,1,492.37,capture020 copy.jpg
12,3,4,2,2,1,493.06,unfamfemale37.jpg
12,3,5,1,1,1,557.83,capture012 copy.jpg
12,3,6,2,2,1,438.53,unfamfemale21.jpg
12,3,7,2,2,1,471.29,capture021 copy.jpg
12,3,8,1,1,1,543.92,capture011 copy.jpg
12,3,9,2,2,1,496.37,capture015 copy.jpg
12,3,10,2,2,1,681.45,capture005 copy.jpg
12,3,11,1,1,1,490.21,unfammale12.jpg
12,3,12,2,2,1,690.95,unfamfemale32.jpg
12,3,13,2,2,1,747.68,unfamfemale08.jpg
12,3,14,1,1,1,660.39,capture016 copy.jpg
12,3,15,2,2,1,533.08,unfamfemale17.jpg
12,3,16,2,1,0,773.86,unfamfemale10.jpg
12,3,17,1,1,1,542.56,capture013 copy.jpg
12,3,18,1,1,1,415.3,unfammale16.jpg
12,3,19,2,2,1,447.93,unfamfemale40.jpg
12,3,20,1,1,1,472.79,unfammale35.jpg
12,3,21,1,1,1,329.48,unfammale09.jpg
12,3,22,1,1,1,298.24,capture003 copy.jpg
12,3,23,2,2,1,370.97,unfamfemale01.jpg
12,3,24,1,1,1,563.71,unfammale28.jpg
12,4,1,1,1,1,434.77,unfammale12.jpg
12,4,2,2,2,1,395.5,unfamfemale17.jpg
12,4,3,1,1,1,396.19,capture012 copy.jpg
12,4,4,2,2,1,356.94,unfamfemale40.jpg
12,4,5,1,1,1,317.67,unfammale16.jpg
12,4,6,2,2,1,406.38,unfamfemale01.jpg
12,4,7,1,1,1,407.1,capture013 copy.jpg
12,4,8,1,1,1,431.87,capture011 copy.jpg
12,4,9,1,1,1,496.61,unfammale35.jpg
12,4,10,1,1,1,473.33,capture003 copy.jpg
12,4,11,1,1,1,418.08,unfammale09.jpg
12,4,12,2,2,1,370.8,capture005 copy.jpg
12,4,13,2,2,1,395.54,unfamfemale10.jpg
12,4,14,1,1,1,516.24,unfammale33.jpg
12,4,15,2,2,1,621.01,unfamfemale21.jpg
12,4,16,2,2,1,533.71,capture021 copy.jpg
12,4,17,2,2,1,502.47,unfamfemale04.jpg
12,4,18,2,2,1,551.2,capture015 copy.jpg
12,4,19,1,1,1,567.89,capture020 copy.jpg
12,4,20,1,1,1,488.6,capture016 copy.jpg
12,4,21,2,2,1,585.32,unfamfemale08.jpg
12,4,22,1,1,1,530.12,unfammale28.jpg
12,4,23,2,2,1,466.84,unfamfemale32.jpg
12,4,24,2,2,1,499.57,unfamfemale37.jpg
12,5,1,2,2,1,685.75,unfamfemale21.jpg
12,5,2,1,1,1,478.5,unfammale09.jpg
12,5,3,1,1,1,343.2,unfammale35.jpg
12,5,4,2,2,1,383.99,capture005 copy.jpg
12,5,5,2,2,1,384.67,unfamfemale32.jpg
12,5,6,1,1,1,337.39,unfammale12.jpg
12,5,7,1,1,1,314.18,unfammale28.jpg
12,5,8,1,1,1,370.91,capture011 copy.jpg
12,5,9,1,1,1,347.58,capture003 copy.jpg
12,5,10,1,1,1,308.37,capture016 copy.jpg
12,5,11,2,2,1,381.1,unfamfemale04.jpg
12,5,12,2,2,1,405.76,unfamfemale17.jpg
12,5,13,1,1,1,502.57,unfammale33.jpg
12,5,14,1,1,1,407.29,capture013 copy.jpg
12,5,15,2,2,1,391.93,unfamfemale10.jpg
12,5,16,1,1,1,432.72,unfammale16.jpg
12,5,17,1,1,1,441.44,capture012 copy.jpg
12,5,18,2,2,1,490.22,capture021 copy.jpg
12,5,19,2,2,1,522.94,capture015 copy.jpg
12,5,20,2,2,1,435.63,unfamfemale01.jpg
12,5,21,2,2,1,388.4,unfamfemale08.jpg
12,5,22,2,2,1,405.07,unfamfemale37.jpg
12,5,23,2,2,1,429.83,unfamfemale40.jpg
12,5,24,1,1,1,598.61,capture020 copy.jpg
12,6,1,2,2,1,504.35,unfamfemale32.jpg
12,6,2,2,2,1,385.03,capture005 copy.jpg
12,6,3,1,1,1,417.79,capture011 copy.jpg
12,6,4,2,2,1,562.49,capture015 copy.jpg
12,6,5,1,1,1,435.2,capture013 copy.jpg
12,6,6,1,1,1,403.94,unfammale33.jpg
12,6,7,2,2,1,468.72,unfamfemale17.jpg
12,6,8,1,1,1,525.39,capture016 copy.jpg
12,6,9,2,2,1,510.18,unfamfemale21.jpg
12,6,10,1,1,1,486.89,unfammale35.jpg
12,6,11,1,1,1,375.61,unfammale12.jpg
12,6,12,1,1,1,344.36,unfammale16.jpg
12,6,13,1,1,1,353.09,capture012 copy.jpg
12,6,14,2,2,1,393.83,unfamfemale01.jpg
12,6,15,2,2,1,490.56,unfamfemale10.jpg
12,6,16,2,2,1,435.24,unfamfemale04.jpg
12,6,17,1,1,1,419.96,capture003 copy.jpg
12,6,18,2,2,1,476.73,capture021 copy.jpg
12,6,19,1,1,1,589.48,capture020 copy.jpg
12,6,20,1,1,1,486.21,unfammale09.jpg
12,6,21,2,2,1,382.89,unfamfemale08.jpg
12,6,22,2,2,1,519.67,unfamfemale37.jpg
12,6,23,1,1,1,576.39,unfammale28.jpg
12,6,24,2,2,1,513.12,unfamfemale40.jpg
12,7,1,1,1,1,454.11,unfammale12.jpg
12,7,2,2,2,1,478.83,unfamfemale17.jpg
12,7,3,1,1,1,519.54,unfammale33.jpg
12,7,4,1,1,1,544.29,capture012 copy.jpg
12,7,5,1,1,1,577.05,unfammale35.jpg
12,7,6,2,2,1,489.76,unfamfemale21.jpg
12,7,7,2,2,1,458.47,unfamfemale37.jpg
12,7,8,2,2,1,387.23,unfamfemale32.jpg
12,7,9,2,2,1,403.96,unfamfemale40.jpg
12,7,10,1,1,1,460.67,capture003 copy.jpg
12,7,11,1,1,1,469.41,capture011 copy.jpg
12,7,12,2,2,1,550.16,capture005 copy.jpg
12,7,13,1,1,1,590.89,capture016 copy.jpg
12,7,14,2,2,1,623.63,capture021 copy.jpg
12,7,15,2,2,1,480.35,unfamfemale01.jpg
12,7,16,1,1,1,393.07,unfammale16.jpg
12,7,17,1,0,0,0,unfammale28.jpg
12,7,18,2,2,1,442.54,unfamfemale10.jpg
12,7,19,1,1,1,467.27,unfammale09.jpg
12,7,20,2,2,1,500,capture015 copy.jpg
12,7,21,1,1,1,500.7,capture013 copy.jpg
12,7,22,1,1,1,413.46,capture020 copy.jpg
12,7,23,2,2,1,446.19,unfamfemale08.jpg
12,7,24,2,2,1,422.89,unfamfemale04.jpg
12,8,1,2,2,1,440.92,unfamfemale08.jpg
12,8,2,1,1,1,433.67,unfammale35.jpg
12,8,3,2,2,1,570.43,unfamfemale32.jpg
12,8,4,2,2,1,443.17,unfamfemale40.jpg
12,8,5,2,2,1,395.87,capture015 copy.jpg
12,8,6,1,1,1,420.61,capture013 copy.jpg
12,8,7,1,1,1,389.36,unfammale28.jpg
12,8,8,1,1,1,374.09,unfammale12.jpg
12,8,9,2,2,1,374.82,unfamfemale04.jpg
12,8,10,1,1,1,479.51,unfammale09.jpg
12,8,11,2,2,1,472.28,unfamfemale17.jpg
12,8,12,2,2,1,368.94,unfamfemale37.jpg
12,8,13,1,1,1,393.52,capture011 copy.jpg
12,8,14,1,1,1,418.42,unfammale33.jpg
12,8,15,2,2,1,427.06,unfamfemale01.jpg
12,8,16,1,1,1,475.93,capture012 copy.jpg
12,8,17,2,2,1,652.63,unfamfemale21.jpg
12,8,18,2,2,1,437.34,unfamfemale10.jpg
12,8,19,2,2,1,470.13,capture005 copy.jpg
12,8,20,1,1,1,438.79,unfammale16.jpg
12,8,21,2,2,1,463.53,capture021 copy.jpg
12,8,22,1,1,1,448.28,capture020 copy.jpg
12,8,23,1,1,1,401.05,capture003 copy.jpg
12,8,24,1,1,1,401.78,capture016 copy.jpg
13,1,1,1,1,1,576.7,unfammale39.jpg
13,1,2,2,2,1,508.22,unfamfemale37.jpg
13,1,3,2,2,1,477,unfamfemale10.jpg
13,1,4,1,1,1,437.71,unfammale05.jpg
13,1,5,1,1,1,358.56,unfammale18.jpg
13,1,6,2,2,1,439.31,unfamfemale17.jpg
13,1,7,2,2,1,464.13,capture021 copy.jpg
13,1,8,1,1,1,472.86,unfammale38.jpg
13,1,9,2,2,1,585.65,unfamfemale32.jpg
13,1,10,2,2,1,426.44,unfamfemale04.jpg
13,1,11,2,2,1,531.26,unfamfemale21.jpg
13,1,12,1,1,1,548,unfammale21.jpg
13,1,13,2,2,1,492.8,unfamfemale08.jpg
13,1,14,1,1,1,541.61,unfammale14.jpg
13,1,15,1,1,1,510.39,unfammale19.jpg
13,1,16,1,1,1,575.17,unfammale25.jpg
13,1,17,2,2,1,407.95,unfamfemale40.jpg
13,1,18,2,2,1,424.74,capture015 copy.jpg
13,1,19,2,2,1,417.5,unfamfemale01.jpg
13,1,20,1,1,1,466.24,unfammale08.jpg
13,1,21,2,2,1,387.02,capture005 copy.jpg
13,1,22,1,1,1,555.86,unfammale23.jpg
13,1,23,1,1,1,484.65,unfammale02.jpg
13,1,24,1,1,1,365.43,capture010 copy.jpg
13,2,1,1,1,1,482.14,capture010 copy.jpg
13,2,2,1,1,1,458.92,unfammale19.jpg
13,2,3,2,2,1,371.7,unfamfemale40.jpg
13,2,4,1,1,1,388.49,unfammale39.jpg
13,2,5,1,1,1,445.24,unfammale08.jpg
13,2,6,2,2,1,406.05,unfamfemale32.jpg
13,2,7,1,1,1,398.82,unfammale21.jpg
13,2,8,1,1,1,423.62,unfammale05.jpg
13,2,9,1,1,1,448.33,unfammale38.jpg
13,2,10,2,2,1,369.13,capture005 copy.jpg
13,2,11,1,1,1,417.97,unfammale18.jpg
13,2,12,2,2,1,394.75,capture015 copy.jpg
13,2,13,2,2,1,395.51,unfamfemale17.jpg
13,2,14,2,2,1,404.31,unfamfemale37.jpg
13,2,15,1,1,1,373.03,unfammale25.jpg
13,2,16,2,2,1,325.86,unfamfemale04.jpg
13,2,17,1,1,1,414.63,unfammale02.jpg
13,2,18,2,2,1,375.39,unfamfemale08.jpg
13,2,19,2,2,1,376.17,unfamfemale01.jpg
13,2,20,2,2,1,304.95,capture021 copy.jpg
13,2,21,1,1,1,473.78,unfammale23.jpg
13,2,22,2,2,1,434.57,unfamfemale21.jpg
13,2,23,1,1,1,443.34,unfammale14.jpg
13,2,24,2,2,1,444.1,unfamfemale10.jpg
13,3,1,2,2,1,400.58,unfamfemale32.jpg
13,3,2,1,1,1,321.34,capture010 copy.jpg
13,3,3,2,2,1,290.13,capture005 copy.jpg
13,3,4,2,2,1,474.85,unfamfemale37.jpg
13,3,5,2,2,1,419.64,unfamfemale40.jpg
13,3,6,1,1,1,372.44,unfammale14.jpg
13,3,7,2,2,1,589.23,capture015 copy.jpg
13,3,8,1,1,1,390.04,unfammale05.jpg
13,3,9,1,1,1,558.77,unfammale18.jpg
13,3,10,1,1,1,391.61,unfammale08.jpg
13,3,11,1,1,1,328.33,unfammale38.jpg
13,3,12,2,2,1,329.13,unfamfemale01.jpg
13,3,13,2,2,1,369.89,unfamfemale21.jpg
13,3,14,2,2,1,370.74,unfamfemale10.jpg
13,3,15,1,1,1,435.51,unfammale25.jpg
13,3,16,1,1,1,412.24,unfammale23.jpg
13,3,17,2,2,1,381.03,unfamfemale08.jpg
13,3,18,2,2,1,469.86,unfamfemale04.jpg
13,3,19,2,2,1,422.58,unfamfemale17.jpg
13,3,20,1,1,1,455.39,unfammale19.jpg
13,3,21,1,1,1,424.2,unfammale02.jpg
13,3,22,2,2,1,360.93,capture021 copy.jpg
13,3,23,1,1,1,545.71,unfammale21.jpg
13,3,24,1,1,1,370.5,unfammale39.jpg
13,4,1,1,1,1,518.96,unfammale25.jpg
13,4,2,1,1,1,463.72,unfammale38.jpg
13,4,3,2,2,1,472.51,unfamfemale32.jpg
13,4,4,2,2,1,401.26,capture015 copy.jpg
13,4,5,2,2,1,418.08,unfamfemale10.jpg
13,4,6,1,1,1,354.85,unfammale05.jpg
13,4,7,1,1,1,403.58,unfammale23.jpg
13,4,8,2,2,1,348.4,unfamfemale04.jpg
13,4,9,2,2,1,437.18,unfamfemale08.jpg
13,4,10,2,2,1,501.96,unfamfemale17.jpg
13,4,11,2,2,1,398.75,capture021 copy.jpg
13,4,12,2,2,1,479.51,capture005 copy.jpg
13,4,13,2,2,1,464.28,unfamfemale40.jpg
13,4,14,1,1,1,369.12,unfammale14.jpg
13,4,15,1,1,1,433.89,unfammale21.jpg
13,4,16,1,1,1,394.69,unfammale02.jpg
13,4,17,1,1,1,395.46,capture010 copy.jpg
13,4,18,2,2,1,396.21,unfamfemale01.jpg
13,4,19,2,2,1,365.03,unfamfemale21.jpg
13,4,20,2,2,1,413.82,unfamfemale37.jpg
13,4,21,1,1,1,390.58,unfammale18.jpg
13,4,22,1,1,1,471.36,unfammale19.jpg
13,4,23,1,1,1,400.17,unfammale08.jpg
13,4,24,1,1,1,336.89,unfammale39.jpg
13,5,1,1,1,1,378.69,unfammale19.jpg
13,5,2,1,1,1,379.46,unfammale21.jpg
13,5,3,1,1,1,268.23,unfammale23.jpg
13,5,4,1,1,1,389.03,unfammale39.jpg
13,5,5,2,2,1,429.76,unfamfemale01.jpg
13,5,6,2,2,1,374.59,capture005 copy.jpg
13,5,7,2,2,1,391.38,unfamfemale08.jpg
13,5,8,2,2,1,440.1,unfamfemale21.jpg
13,5,9,1,1,1,400.89,unfammale08.jpg
13,5,10,1,1,1,313.67,unfammale02.jpg
13,5,11,1,1,1,306.48,unfammale18.jpg
13,5,12,1,1,1,547.23,unfammale38.jpg
13,5,13,2,2,1,380.07,unfamfemale04.jpg
13,5,14,2,2,1,348.83,capture021 copy.jpg
13,5,15,1,1,1,389.64,unfammale25.jpg
13,5,16,2,2,1,550.39,unfamfemale10.jpg
13,5,17,2,2,1,375.2,unfamfemale37.jpg
13,5,18,1,1,1,343.97,unfammale05.jpg
13,5,19,1,1,1,360.77,unfammale14.jpg
13,5,20,2,2,1,393.49,unfamfemale17.jpg
13,5,21,2,2,1,418.34,unfamfemale32.jpg
13,5,22,1,1,1,379.1,capture010 copy.jpg
13,5,23,2,2,1,411.89,unfamfemale40.jpg
13,5,24,2,2,1,428.62,capture015 copy.jpg
13,6,1,2,2,1,392.43,unfamfemale08.jpg
13,6,2,1,1,1,481.24,unfammale08.jpg
13,6,3,2,2,1,474.03,unfamfemale04.jpg
13,6,4,2,2,1,490.81,unfamfemale37.jpg
13,6,5,1,1,1,515.6,unfammale02.jpg
13,6,6,1,1,1,396.39,unfammale21.jpg
13,6,7,2,2,1,453.13,capture021 copy.jpg
13,6,8,2,2,1,485.88,unfamfemale21.jpg
13,6,9,2,2,1,478.68,unfamfemale40.jpg
13,6,10,1,1,1,431.51,unfammale14.jpg
13,6,11,2,2,1,408.27,unfamfemale17.jpg
13,6,12,1,1,1,433.06,unfammale39.jpg
13,6,13,1,1,1,321.86,unfammale23.jpg
13,6,14,2,2,1,434.59,capture005 copy.jpg
13,6,15,2,2,1,475.36,unfamfemale10.jpg
13,6,16,1,1,1,404.16,unfammale18.jpg
13,6,17,1,1,1,564.94,unfammale19.jpg
13,6,18,2,2,1,445.76,unfamfemale01.jpg
13,6,19,1,1,1,486.53,unfammale25.jpg
13,6,20,2,2,1,479.3,capture015 copy.jpg
13,6,21,1,1,1,448.11,unfammale38.jpg
13,6,22,1,1,1,360.87,unfammale05.jpg
13,6,23,1,1,1,665.69,capture010 copy.jpg
13,6,24,2,2,1,698.47,unfamfemale32.jpg
13,7,1,1,1,1,700.21,unfammale25.jpg
13,7,2,2,2,1,516.98,unfamfemale04.jpg
13,7,3,2,2,1,477.76,capture005 copy.jpg
13,7,4,1,1,1,422.57,unfammale08.jpg
13,7,5,1,1,1,351.29,unfammale18.jpg
13,7,6,1,1,1,280.13,unfammale21.jpg
13,7,7,1,1,1,376.88,capture010 copy.jpg
13,7,8,1,1,1,473.64,unfammale02.jpg
13,7,9,2,2,1,546.48,unfamfemale10.jpg
13,7,10,1,2,0,411.2,unfammale14.jpg
13,7,11,1,1,1,468.02,unfammale23.jpg
13,7,12,2,2,1,596.83,unfamfemale21.jpg
13,7,13,1,1,1,525.57,unfammale38.jpg
13,7,14,2,2,1,486.38,capture015 copy.jpg
13,7,15,1,1,1,471.17,unfammale39.jpg
13,7,16,1,1,1,535.9,unfammale05.jpg
13,7,17,2,2,1,544.7,unfamfemale01.jpg
13,7,18,2,2,1,521.49,unfamfemale37.jpg
13,7,19,2,2,1,466.25,capture021 copy.jpg
13,7,20,2,2,1,491.08,unfamfemale32.jpg
13,7,21,1,1,1,475.88,unfammale19.jpg
13,7,22,2,2,1,484.64,unfamfemale17.jpg
13,7,23,2,2,1,613.39,unfamfemale40.jpg
13,7,24,2,2,1,470.19,unfamfemale08.jpg
13,8,1,1,1,1,398.75,unfammale38.jpg
13,8,2,2,2,1,415.51,unfamfemale04.jpg
13,8,3,1,1,1,400.24,unfammale18.jpg
13,8,4,2,2,1,417.05,capture005 copy.jpg
13,8,5,2,2,1,425.86,unfamfemale01.jpg
13,8,6,2,2,1,402.65,unfamfemale21.jpg
13,8,7,2,2,1,363.38,unfamfemale40.jpg
13,8,8,2,2,1,380.21,unfamfemale08.jpg
13,8,9,1,1,1,460.93,unfammale02.jpg
13,8,10,1,1,1,413.76,unfammale08.jpg
13,8,11,1,1,1,406.56,unfammale23.jpg
13,8,12,2,2,1,415.3,capture021 copy.jpg
13,8,13,1,1,1,456.07,unfammale25.jpg
13,8,14,1,1,1,408.89,unfammale14.jpg
13,8,15,2,2,1,409.67,unfamfemale10.jpg
13,8,16,1,1,1,418.42,unfammale39.jpg
13,8,17,2,2,1,419.25,unfamfemale32.jpg
13,8,18,2,1,0,444,unfamfemale37.jpg
13,8,19,2,2,1,460.77,capture015 copy.jpg
13,8,20,1,1,1,533.55,unfammale19.jpg
13,8,21,1,1,1,502.38,capture010 copy.jpg
13,8,22,1,1,1,407.16,unfammale21.jpg
13,8,23,2,2,1,503.95,unfamfemale17.jpg
13,8,24,1,1,1,544.73,unfammale05.jpg