SID,Block,Trial,RepTime,Resp,Corr,RT,ImgName
1,1,1,1,1,1,1119.89,nonwex6.png
1,1,2,1,0,0,0,nonwin2_11.png
1,1,3,1,1,1,56.97,nonwex12.png
1,1,4,1,1,1,742.86,nonwin2_12.png
1,1,5,1,1,1,580.71,nonwex11.png
1,1,6,1,1,1,498.61,nonwex2_5.png
1,1,7,1,1,1,424.43,nonwin7.png
1,1,8,1,1,1,526.38,nonwin4.png
1,1,9,1,1,1,484.25,nonwin2_5.png
1,1,10,1,1,1,500.75,nonwex2_12.png
1,1,11,1,1,1,557.35,nonwex2_4.png
1,1,12,1,1,1,421.88,nonwex9.png
1,1,13,2,2,1,795.76,nonwex2_5.png
1,1,14,1,2,0,636.24,nonwex4.png
1,1,15,1,1,1,572.82,nonwex2_8.png
1,1,16,2,2,1,757.36,nonwin2_12.png
1,1,17,1,1,1,645.91,nonwex2_10.png
1,1,18,1,1,1,590.47,nonwin9.png
1,1,19,1,1,1,663.03,nonwin8.png
1,1,20,2,2,1,796.93,nonwex2_8.png
1,1,21,2,2,1,845.48,nonwin8.png
1,1,22,1,1,1,725.96,nonwin3.png
1,1,23,1,1,1,638.56,nonwex2.png
1,1,24,1,1,1,623.04,nonwin10.png
1,1,25,1,1,1,511.64,nonwex2_7.png
1,1,26,1,1,1,680.12,nonwin5.png
1,1,27,1,1,1,645.81,nonwex8.png
1,1,28,1,1,1,510.62,nonwex2_9.png
1,1,29,1,1,1,567.14,nonwex5.png
1,1,30,2,2,1,645.04,nonwin5.png
1,1,31,1,2,0,810.92,nonwin2_6.png
1,1,32,1,1,1,648.71,nonwin2_7.png
1,1,33,2,2,1,702.59,nonwin10.png
1,1,34,1,1,1,692.53,nonwex2_6.png
1,1,35,1,1,1,722.39,nonwin6.png
1,1,36,1,1,1,504.23,nonwin2_1.png
1,1,37,2,1,0,550.1,nonwex2.png
1,1,38,1,2,0,844.02,nonwin1.png
1,1,39,1,1,1,716.58,nonwin12.png
1,1,40,2,1,0,690.45,nonwex9.png
1,1,41,1,1,1,616.26,nonwex2_1.png
1,1,42,1,1,1,742.16,nonwin2.png
1,1,43,2,1,0,460,nonwin4.png
1,1,44,2,2,1,1113.98,nonwex2_4.png
1,1,45,3,2,0,751.83,nonwin4.png
1,1,46,1,1,1,669.69,nonwex7.png
1,1,47,2,2,1,707.52,nonwex2_6.png
1,1,48,1,1,1,689.43,nonwex2_2.png
1,1,49,2,2,1,607.31,nonwex11.png
1,1,50,3,3,1,973.19,nonwex2_6.png
1,1,51,1,1,1,677.71,nonwin2_3.png
1,1,52,2,2,1,827.57,nonwex5.png
1,1,53,3,1,0,569.48,nonwex2_5.png
1,1,54,2,1,0,711.35,nonwex2_10.png
1,1,55,1,1,1,839.93,nonwin2_9.png
1,1,56,2,1,0,541.78,nonwin2_1.png
1,1,57,1,1,1,763.6,nonwex2_11.png
1,1,58,1,1,1,721.27,nonwex2_3.png
1,1,59,2,2,1,807.42,nonwex2_9.png
1,1,60,3,3,1,895.92,nonwex2_4.png
1,1,61,1,1,1,829.79,nonwin2_8.png
1,1,62,2,2,1,947.71,nonwex12.png
1,1,63,2,2,1,969.59,nonwin2_8.png
1,1,64,1,1,1,746.07,nonwin2_2.png
1,1,65,2,2,1,1000.01,nonwin2_11.png
1,1,66,2,2,1,941.89,nonwin3.png
1,1,67,3,2,0,1003.74,nonwin2_1.png
1,1,68,1,1,1,785.6,nonwex10.png
1,1,69,2,1,0,911.46,nonwin2.png
1,1,70,1,3,0,677.3,nonwin2_4.png
1,1,71,2,3,0,691.24,nonwex8.png
1,1,72,2,2,1,817.07,nonwex2_3.png
1,1,73,2,2,1,910.95,nonwin2_3.png
1,1,74,3,3,1,812.88,nonwin3.png
1,1,75,3,3,1,714.73,nonwex2_10.png
1,1,76,1,1,1,851.24,nonwex1.png
1,1,77,3,3,1,689.14,nonwin2.png
1,1,78,2,2,1,919.05,nonwex7.png
1,1,79,3,3,1,804.92,nonwin8.png
1,1,80,1,2,0,738.79,nonwin11.png
1,1,81,2,1,0,760.66,nonwin7.png
1,1,82,3,3,1,665.19,nonwex2_9.png
1,1,83,1,2,0,815.03,nonwin2_10.png
1,1,84,2,3,0,804.94,nonwin2_6.png
1,1,85,2,2,1,658.77,nonwin11.png
1,1,86,2,2,1,584.64,nonwex2_2.png
1,1,87,1,2,0,598.57,nonwex3.png
1,1,88,2,1,0,812.45,nonwex2_7.png
1,1,89,3,3,1,842.27,nonwex2_2.png
1,1,90,2,3,0,744.16,nonwin2_4.png
1,1,91,3,2,0,766.06,nonwex2_8.png
1,1,92,3,3,1,635.93,nonwex11.png
1,1,93,2,2,1,969.79,nonwin2_7.png
1,1,94,3,2,0,927.67,nonwex7.png
1,1,95,2,2,1,613.57,nonwin2_5.png
1,1,96,3,3,1,779.45,nonwin7.png
1,1,97,3,2,0,841.31,nonwex2_3.png
1,1,98,2,2,1,967.18,nonwex3.png
1,1,99,3,2,0,781.07,nonwin2_8.png
1,1,100,2,2,1,802.9,nonwin6.png
1,1,101,2,3,0,904.77,nonwex10.png
1,1,102,2,2,1,846.7,nonwin2_9.png
1,1,103,2,3,0,828.57,nonwin2_10.png
1,1,104,3,3,1,826.44,nonwex3.png
1,1,105,3,3,1,712.25,nonwin2_7.png
1,1,106,2,3,0,670.16,nonwex2_11.png
1,1,107,3,3,1,804.06,nonwex12.png
1,1,108,3,3,1,689.89,nonwex10.png
1,1,109,2,3,0,799.77,nonwin1.png
1,1,110,2,2,1,909.69,nonwex2_1.png
1,1,111,3,3,1,811.52,nonwin2_6.png
1,1,112,2,2,1,1001.45,nonwex6.png
1,1,113,3,3,1,815.25,nonwin2_3.png
1,1,114,2,2,1,877.16,nonwex4.png
1,1,115,3,2,0,981.75,nonwex2_11.png
1,1,116,3,3,1,611.52,nonwex8.png
1,1,117,3,3,1,537.46,nonwex6.png
1,1,118,3,3,1,583.34,nonwex4.png
1,1,119,3,3,1,573.21,nonwin2_11.png
1,1,120,3,2,0,707.09,nonwin6.png
1,1,121,3,3,1,288.93,nonwin2_12.png
1,1,122,3,3,1,870.84,nonwin2_9.png
1,1,123,2,3,0,644.71,nonwin2_2.png
1,1,124,3,2,0,690.55,nonwin2_2.png
1,1,125,2,2,1,896.41,nonwex2_12.png
1,1,126,3,3,1,774.32,nonwin10.png
1,1,127,3,2,0,748.17,nonwex2.png
1,1,128,2,2,1,778.07,nonwex1.png
1,1,129,3,2,0,567.92,nonwin5.png
1,1,130,3,2,0,797.79,nonwex9.png
1,1,131,3,3,1,691.69,nonwex1.png
1,1,132,3,2,0,729.54,nonwin2_5.png
1,1,133,2,3,0,895.45,nonwin9.png
1,1,134,3,2,0,829.31,nonwex2_1.png
1,1,135,2,2,1,651.15,nonwin12.png
1,1,136,3,3,1,515.73,nonwin9.png
1,1,137,3,3,1,737.61,nonwin2_4.png
1,1,138,3,3,1,527.44,nonwin1.png
1,1,139,3,3,1,573.28,nonwex2_7.png
1,1,140,3,3,1,379.18,nonwin11.png
1,1,141,3,3,1,337.04,nonwex5.png
1,1,142,3,3,1,502.92,nonwex2_12.png
1,1,143,3,2,0,812.83,nonwin12.png
1,1,144,3,3,1,322.66,nonwin2_10.png
1,2,1,1,1,1,709.14,nonwin1.png
1,2,2,1,1,1,475,nonwex2_4.png
1,2,3,1,1,1,432.87,nonwex10.png
1,2,4,1,1,1,406.8,nonwex8.png
1,2,5,1,1,1,364.65,nonwin2_3.png
1,2,6,1,1,1,338.54,nonwex2_11.png
1,2,7,1,1,1,344.41,nonwin2_4.png
1,2,8,1,1,1,542.25,nonwex5.png
1,2,9,1,1,1,620.17,nonwex1.png
1,2,10,1,1,1,466,nonwex2_6.png
1,2,11,1,1,1,327.9,nonwex12.png
1,2,12,1,1,1,309.77,nonwex2_5.png
1,2,13,1,1,1,323.65,nonwex11.png
1,2,14,1,1,1,425.47,nonwex2_9.png
1,2,15,1,1,1,359.35,nonwex2_1.png
1,2,16,1,1,1,317.24,nonwex6.png
1,2,17,1,1,1,443.14,nonwin8.png
1,2,18,2,2,1,512.97,nonwex2_9.png
1,2,19,1,1,1,574.87,nonwex2_8.png
1,2,20,1,1,1,652.77,nonwin11.png
1,2,21,2,1,0,514.62,nonwex8.png
1,2,22,1,1,1,568.51,nonwex2_12.png
1,2,23,1,1,1,542.38,nonwin10.png
1,2,24,1,1,1,532.2,nonwin2_6.png
1,2,25,2,2,1,658.07,nonwin8.png
1,2,26,2,1,0,671.96,nonwin1.png
1,2,27,1,1,1,869.89,nonwex4.png
1,2,28,2,2,1,779.71,nonwex2_12.png
1,2,29,1,1,1,833.63,nonwin2.png
1,2,30,2,1,0,831.46,nonwin10.png
1,2,31,1,1,1,621.35,nonwex7.png
1,2,32,1,2,0,611.23,nonwin2_11.png
1,2,33,1,1,1,1073.14,nonwin3.png
1,2,34,2,2,1,550.97,nonwex2_8.png
1,2,35,3,2,0,500.84,nonwex2_8.png
1,2,36,2,1,0,1114.7,nonwex7.png
1,2,37,1,1,1,640.59,nonwin5.png
1,2,38,2,2,1,606.42,nonwex2_6.png
1,2,39,2,1,0,500.32,nonwex6.png
1,2,40,1,2,0,618.21,nonwex2.png
1,2,41,2,1,0,768.07,nonwex2_11.png
1,2,42,2,2,1,701.9,nonwex12.png
1,2,43,2,3,0,795.83,nonwex4.png
1,2,44,3,3,1,721.7,nonwex2_12.png
1,2,45,1,2,0,663.51,nonwin2_2.png
1,2,46,1,1,1,557.39,nonwin2_9.png
1,2,47,1,1,1,819.32,nonwin2_8.png
1,2,48,1,2,0,593.18,nonwin2_10.png
1,2,49,1,1,1,471,nonwex3.png
1,2,50,1,1,1,500.92,nonwin2_12.png
1,2,51,1,2,0,554.77,nonwin9.png
1,2,52,1,1,1,672.61,nonwex2_7.png
1,2,53,1,1,1,614.54,nonwex2_10.png
1,2,54,1,1,1,540.41,nonwin4.png
1,2,55,1,2,0,746.23,nonwin7.png
1,2,56,3,2,0,744.16,nonwin10.png
1,2,57,2,2,1,621.97,nonwex11.png
1,2,58,1,1,1,795.91,nonwin6.png
1,2,59,2,2,1,793.77,nonwin2_9.png
1,2,60,2,2,1,783.58,nonwin2_3.png
1,2,61,2,2,1,709.51,nonwex2.png
1,2,62,2,2,1,787.38,nonwin2_6.png
1,2,63,2,2,1,561.21,nonwex2_10.png
1,2,64,2,2,1,487.12,nonwex2_7.png
1,2,65,3,2,0,516.97,nonwex2_10.png
1,2,66,2,2,1,498.86,nonwex2_4.png
1,2,67,2,2,1,672.75,nonwin6.png
1,2,68,1,1,1,753.11,nonwin2_1.png
1,2,69,2,2,1,527.13,nonwin2_12.png
1,2,70,2,1,0,756.99,nonwex5.png
1,2,71,1,3,0,610.9,nonwin12.png
1,2,72,2,2,1,800.75,nonwex2_5.png
1,2,73,3,2,0,582.58,nonwex6.png
1,2,74,1,3,0,420.5,nonwin2_7.png
1,2,75,2,2,1,506.38,nonwin7.png
1,2,76,3,2,0,672.25,nonwin1.png
1,2,77,1,1,1,590.13,nonwex2_2.png
1,2,78,2,2,1,572,nonwin12.png
1,2,79,1,3,0,913.83,nonwex2_3.png
1,2,80,3,3,1,559.75,nonwex2_9.png
1,2,81,3,3,1,653.62,nonwin2_3.png
1,2,82,3,3,1,899.28,nonwex2_4.png
1,2,83,3,3,1,665.31,nonwex7.png
1,2,84,2,3,0,815.24,nonwin2_10.png
1,2,85,2,2,1,565.1,nonwex2_3.png
1,2,86,3,3,1,722.95,nonwin2_10.png
1,2,87,2,3,0,672.86,nonwin3.png
1,2,88,2,3,0,606.72,nonwex1.png
1,2,89,2,2,1,796.56,nonwin2_1.png
1,2,90,3,2,0,642.47,nonwin2_12.png
1,2,91,3,2,0,520.31,nonwin2_1.png
1,2,92,2,2,1,862.23,nonwex2_1.png
1,2,93,2,2,1,870.74,nonwex3.png
1,2,94,2,2,1,772.64,nonwex2_2.png
1,2,95,3,3,1,834.52,nonwex4.png
1,2,96,2,3,0,824.37,nonwin2_11.png
1,2,97,3,3,1,878.26,nonwex2_3.png
1,2,98,2,3,0,764.13,nonwin5.png
1,2,99,3,3,1,652.62,nonwex2_11.png
1,2,100,3,3,1,490.53,nonwin3.png
1,2,101,2,2,1,688.37,nonwin2_8.png
1,2,102,2,2,1,830.29,nonwin2_7.png
1,2,103,1,3,0,708.13,nonwex9.png
1,2,104,2,2,1,946.03,nonwin11.png
1,2,105,2,3,0,879.69,nonwin2.png
1,2,106,2,3,0,941.74,nonwin9.png
1,2,107,2,3,0,547.58,nonwin4.png
1,2,108,2,3,0,657.51,nonwin2_4.png
1,2,109,3,2,0,671.35,nonwin2_6.png
1,2,110,3,3,1,573.23,nonwex12.png
1,2,111,2,3,0,451.09,nonwex9.png
1,2,112,3,3,1,617,nonwin7.png
1,2,113,3,2,0,566.86,nonwex9.png
1,2,114,1,3,0,292.72,nonwin2_5.png
1,2,115,3,3,1,666.59,nonwex2_7.png
1,2,116,3,2,0,736.5,nonwin2_7.png
1,2,117,3,3,1,646.33,nonwex11.png
1,2,118,3,3,1,564.23,nonwin2_11.png
1,2,119,2,2,1,706.11,nonwin2_2.png
1,2,120,3,3,1,615.98,nonwex1.png
1,2,121,3,2,0,709.86,nonwex3.png
1,2,122,3,3,1,827.69,nonwin6.png
1,2,123,2,3,0,649.6,nonwex10.png
1,2,124,3,3,1,615.42,nonwex5.png
1,2,125,3,3,1,605.34,nonwex2_1.png
1,2,126,3,3,1,587.18,nonwex8.png
1,2,127,3,2,0,505.06,nonwin9.png
1,2,128,3,3,1,366.86,nonwex2_6.png
1,2,129,3,3,1,500.82,nonwex2_5.png
1,2,130,3,2,0,586.68,nonwin11.png
1,2,131,3,3,1,720.53,nonwex2.png
1,2,132,3,2,0,838.41,nonwin2_8.png
1,2,133,3,3,1,676.28,nonwin2.png
1,2,134,3,3,1,434.17,nonwin2_4.png
1,2,135,3,3,1,632.07,nonwin8.png
1,2,136,3,2,0,525.93,nonwin5.png
1,2,137,3,2,0,483.8,nonwin4.png
1,2,138,3,2,0,849.7,nonwin2_2.png
1,2,139,2,3,0,735.55,nonwin2_5.png
1,2,140,3,3,1,509.36,nonwin12.png
1,2,141,3,3,1,579.26,nonwex10.png
1,2,142,3,2,0,745.18,nonwin2_9.png
1,2,143,3,2,0,839.05,nonwex2_2.png
1,2,144,3,3,1,764.9,nonwin2_5.png
1,3,1,1,1,1,680.35,nonwex5.png
1,3,2,1,1,1,494.19,nonwex2_3.png
1,3,3,1,1,1,484.09,nonwex2_6.png
1,3,4,1,1,1,393.91,nonwin9.png
1,3,5,1,1,1,351.8,nonwex4.png
1,3,6,1,1,1,333.64,nonwex2_10.png
1,3,7,1,1,1,307.51,nonwin2_12.png
1,3,8,1,1,1,305.38,nonwex1.png
1,3,9,1,1,1,327.32,nonwin1.png
1,3,10,1,1,1,317.16,nonwin2_7.png
1,3,11,1,1,1,347.04,nonwex3.png
1,3,12,1,1,1,328.89,nonwex2_1.png
1,3,13,2,1,0,318.79,nonwin1.png
1,3,14,1,1,1,516.65,nonwex11.png
1,3,15,1,1,1,509.19,nonwin2_6.png
1,3,16,1,1,1,603.11,nonwin2_3.png
1,3,17,1,2,0,592.97,nonwin12.png
1,3,18,2,1,0,855.19,nonwex4.png
1,3,19,1,2,0,900.75,nonwin2_9.png
1,3,20,1,1,1,842.62,nonwin2_11.png
1,3,21,2,2,1,720.43,nonwex2_3.png
1,3,22,1,1,1,766.3,nonwex9.png
1,3,23,1,1,1,708.19,nonwin3.png
1,3,24,1,1,1,698.05,nonwex2_2.png
1,3,25,1,1,1,743.95,nonwin2_1.png
1,3,26,3,2,0,477.82,nonwex2_3.png
1,3,27,1,1,1,659.66,nonwex2_8.png
1,3,28,1,1,1,649.55,nonwex7.png
1,3,29,2,2,1,535.4,nonwex3.png
1,3,30,1,1,1,613.34,nonwex2_9.png
1,3,31,1,1,1,715.18,nonwin11.png
1,3,32,3,2,0,729.05,nonwex4.png
1,3,33,1,1,1,806.94,nonwin4.png
1,3,34,2,2,1,956.82,nonwin12.png
1,3,35,1,1,1,946.66,nonwex2_4.png
1,3,36,1,1,1,912.59,nonwex2_11.png
1,3,37,2,2,1,718.2,nonwin3.png
1,3,38,1,1,1,644.31,nonwin2.png
1,3,39,2,2,1,810.2,nonwin2_12.png
1,3,40,2,2,1,664.05,nonwin4.png
1,3,41,2,1,0,725.94,nonwin2_11.png
1,3,42,1,2,0,667.81,nonwex12.png
1,3,43,1,2,0,585.69,nonwin8.png
1,3,44,2,2,1,703.57,nonwin8.png
1,3,45,2,1,0,837.41,nonwin2_3.png
1,3,46,3,2,0,787.32,nonwin2_12.png
1,3,47,2,1,0,745.19,nonwex2_1.png
1,3,48,1,1,1,839.05,nonwex2_12.png
1,3,49,1,1,1,716.91,nonwex2_7.png
1,3,50,2,2,1,898.8,nonwex2_10.png
1,3,51,1,1,1,632.66,nonwin2_2.png
1,3,52,3,1,0,574.55,nonwex2_1.png
1,3,53,2,1,0,692.41,nonwex2_11.png
1,3,54,2,2,1,594.28,nonwex12.png
1,3,55,1,1,1,856.15,nonwin2_8.png
1,3,56,1,2,0,630,nonwin2_4.png
1,3,57,2,2,1,819.93,nonwex2_2.png
1,3,58,2,2,1,665.75,nonwex9.png
1,3,59,1,2,0,847.67,nonwex6.png
1,3,60,1,2,0,645.55,nonwin5.png
1,3,61,3,3,1,891.38,nonwin3.png
1,3,62,2,3,0,641.29,nonwin2.png
1,3,63,2,2,1,839.14,nonwin9.png
1,3,64,2,2,1,853.01,nonwex2_4.png
1,3,65,2,2,1,746.89,nonwex11.png
1,3,66,3,3,1,568.78,nonwin8.png
1,3,67,3,2,0,662.63,nonwin2_11.png
1,3,68,2,3,0,596.49,nonwin2_1.png
1,3,69,3,3,1,618.41,nonwex2_11.png
1,3,70,2,3,0,680.24,nonwex2_8.png
1,3,71,2,2,1,622.08,nonwex1.png
1,3,72,3,2,0,827.99,nonwin2_3.png
1,3,73,2,2,1,881.9,nonwex2_6.png
1,3,74,2,2,1,895.77,nonwex2_7.png
1,3,75,3,3,1,645.66,nonwex2_6.png
1,3,76,2,2,1,627.49,nonwex7.png
1,3,77,2,2,1,849.42,nonwex2_9.png
1,3,78,2,2,1,799.29,nonwin2_9.png
1,3,79,2,2,1,669.14,nonwin2_4.png
1,3,80,1,2,0,530.98,nonwex2_5.png
1,3,81,2,2,1,672.87,nonwin5.png
1,3,82,1,2,0,702.74,nonwin7.png
1,3,83,3,3,1,644.65,nonwin2_4.png
1,3,84,3,2,0,618.49,nonwin9.png
1,3,85,2,2,1,568.37,nonwex5.png
1,3,86,1,2,0,334.24,nonwex2.png
1,3,87,1,2,0,700.15,nonwin10.png
1,3,88,1,2,0,586.02,nonwex8.png
1,3,89,2,2,1,799.87,nonwin2_6.png
1,3,90,3,3,1,605.71,nonwex9.png
1,3,91,3,3,1,795.64,nonwex12.png
1,3,92,2,2,1,777.52,nonwex2_5.png
1,3,93,2,3,0,543.34,nonwex8.png
1,3,94,3,3,1,725.27,nonwin1.png
1,3,95,1,2,0,699.15,nonwin6.png
1,3,96,2,3,0,881.01,nonwex6.png
1,3,97,2,2,1,750.9,nonwin10.png
1,3,98,1,3,0,668.73,nonwex10.png
1,3,99,3,2,0,722.64,nonwex2_8.png
1,3,100,1,2,0,632.51,nonwin2_10.png
1,3,101,3,2,0,678.39,nonwex3.png
1,3,102,3,3,1,652.25,nonwin2_6.png
1,3,103,3,2,0,626.14,nonwin2_9.png
1,3,104,3,2,0,776.01,nonwex2_4.png
1,3,105,3,2,0,685.89,nonwin2.png
1,3,106,2,3,0,595.76,nonwex10.png
1,3,107,3,2,0,585.59,nonwex2_9.png
1,3,108,3,2,0,591.51,nonwex11.png
1,3,109,2,2,1,717.33,nonwin7.png
1,3,110,1,2,0,555.25,nonwin2_5.png
1,3,111,3,3,1,521.09,nonwex10.png
1,3,112,3,2,0,542.95,nonwin12.png
1,3,113,2,2,1,612.85,nonwin6.png
1,3,114,2,2,1,602.72,nonwin2_8.png
1,3,115,3,3,1,768.62,nonwin7.png
1,3,116,2,2,1,614.5,nonwex2_12.png
1,3,117,2,2,1,708.38,nonwin2_10.png
1,3,118,2,2,1,626.25,nonwin2_5.png
1,3,119,3,3,1,624.12,nonwex8.png
1,3,120,3,2,0,453.98,nonwin4.png
1,3,121,2,3,0,683.88,nonwin2_7.png
1,3,122,2,2,1,513.74,nonwin11.png
1,3,123,3,2,0,415.56,nonwin11.png
1,3,124,3,3,1,557.49,nonwex6.png
1,3,125,2,3,0,555.37,nonwex2.png
1,3,126,3,2,0,569.24,nonwin2_5.png
1,3,127,3,3,1,711.11,nonwex7.png
1,3,128,3,2,0,684.95,nonwex2_5.png
1,3,129,2,2,1,754.88,nonwin2_2.png
1,3,130,3,3,1,547.42,nonwin10.png
1,3,131,3,3,1,577.23,nonwin6.png
1,3,132,3,3,1,695.17,nonwin2_1.png
1,3,133,3,3,1,580.97,nonwex2_12.png
1,3,134,3,3,1,490.9,nonwex2_7.png
1,3,135,3,3,1,632.79,nonwex2_2.png
1,3,136,3,3,1,662.66,nonwex5.png
1,3,137,3,3,1,556.51,nonwex2_10.png
1,3,138,3,3,1,298.34,nonwin2_10.png
1,3,139,3,3,1,288.26,nonwin2_7.png
1,3,140,3,3,1,318.14,nonwex2.png
1,3,141,3,3,1,292.01,nonwex1.png
1,3,142,3,3,1,273.88,nonwin5.png
1,3,143,3,3,1,391.74,nonwin2_8.png
1,3,144,3,3,1,589.65,nonwin2_2.png
1,4,1,1,1,1,733.62,nonwex2_4.png
1,4,2,1,1,1,267.39,nonwin2_2.png
1,4,3,1,1,1,281.32,nonwin10.png
1,4,4,1,1,1,311.2,nonwex12.png
1,4,5,1,1,1,237.01,nonwin4.png
1,4,6,1,1,1,258.94,nonwin12.png
1,4,7,1,1,1,256.81,nonwin6.png
1,4,8,1,1,1,54.65,nonwex5.png
1,4,9,1,1,1,276.55,nonwin2_4.png
1,4,10,1,1,1,298.44,nonwex2_2.png
1,4,11,2,1,0,296.32,nonwin4.png
1,4,12,1,1,1,326.15,nonwin2_7.png
1,4,13,1,1,1,316.03,nonwex1.png
1,4,14,2,1,0,513.93,nonwin10.png
1,4,15,3,1,0,279.82,nonwin10.png
1,4,16,1,1,1,709.66,nonwin2_3.png
1,4,17,1,1,1,619.55,nonwex6.png
1,4,18,1,2,0,636.13,nonwex2_12.png
1,4,19,2,2,1,857.97,nonwin2_3.png
1,4,20,1,1,1,783.85,nonwex3.png
1,4,21,1,2,0,925.78,nonwex9.png
1,4,22,1,2,0,635.59,nonwin2_10.png
1,4,23,1,2,0,721.51,nonwin7.png
1,4,24,1,1,1,727.39,nonwin2_1.png
1,4,25,2,1,0,661.23,nonwin6.png
1,4,26,1,1,1,683.09,nonwex4.png
1,4,27,1,2,0,728.98,nonwin2_6.png
1,4,28,1,1,1,558.82,nonwin11.png
1,4,29,2,1,0,540.69,nonwex2_4.png
1,4,30,1,2,0,786.64,nonwex7.png
1,4,31,1,1,1,816.46,nonwex2_6.png
1,4,32,3,2,0,878.39,nonwin4.png
1,4,33,1,2,0,1004.28,nonwex10.png
1,4,34,3,2,0,802.11,nonwin2_3.png
1,4,35,2,3,0,800,nonwex2_6.png
1,4,36,2,2,1,853.89,nonwin2_4.png
1,4,37,1,1,1,731.75,nonwex2_3.png
1,4,38,2,2,1,585.59,nonwin11.png
1,4,39,2,1,0,791.5,nonwex2_2.png
1,4,40,1,1,1,821.35,nonwin2_5.png
1,4,41,3,2,0,715.25,nonwin6.png
1,4,42,1,1,1,865.14,nonwin8.png
1,4,43,1,2,0,686.95,nonwin2_8.png
1,4,44,1,1,1,636.87,nonwin5.png
1,4,45,2,2,1,354.71,nonwin2_10.png
1,4,46,2,2,1,280.59,nonwex2_3.png
1,4,47,1,1,1,462.47,nonwin9.png
1,4,48,2,1,0,604.37,nonwex3.png
1,4,49,1,2,0,690.23,nonwex2_8.png
1,4,50,2,2,1,792.1,nonwex12.png
1,4,51,2,2,1,734,nonwin7.png
1,4,52,1,1,1,643.83,nonwex2_1.png
1,4,53,2,1,0,553.73,nonwex2_1.png
1,4,54,1,2,0,599.61,nonwin2.png
1,4,55,2,2,1,589.48,nonwex9.png
1,4,56,1,2,0,531.35,nonwex2_5.png
1,4,57,1,1,1,577.24,nonwin2_9.png
1,4,58,1,2,0,567.11,nonwex2_10.png
1,4,59,1,2,0,652.98,nonwex2_7.png
1,4,60,1,1,1,778.86,nonwin2_11.png
1,4,61,2,2,1,640.67,nonwin2.png
1,4,62,2,0,0,0,nonwin2_6.png
1,4,63,1,2,0,524.48,nonwex2.png
1,4,64,1,2,0,322.33,nonwex11.png
1,4,65,2,2,1,616.23,nonwin2_1.png
1,4,66,2,2,1,678.08,nonwin2_9.png
1,4,67,2,2,1,675.98,nonwex2_7.png
1,4,68,3,2,0,593.85,nonwex2_6.png
1,4,69,2,3,0,839.72,nonwex10.png
1,4,70,1,2,0,533.58,nonwex8.png
1,4,71,2,2,1,595.43,nonwin5.png
1,4,72,2,2,1,545.29,nonwex7.png
1,4,73,3,2,0,727.21,nonwin2.png
1,4,74,2,2,1,565.07,nonwin2_8.png
1,4,75,2,2,1,634.93,nonwex11.png
1,4,76,2,2,1,688.85,nonwex5.png
1,4,77,2,2,1,326.68,nonwex8.png
1,4,78,1,2,0,716.58,nonwin3.png
1,4,79,2,2,1,466.42,nonwex2_12.png
1,4,80,1,2,0,264.31,nonwin2_12.png
1,4,81,1,2,0,134.15,nonwex2_9.png
1,4,82,2,2,1,556.09,nonwex2_10.png
1,4,83,3,2,0,633.97,nonwin5.png
1,4,84,2,2,1,919.87,nonwex4.png
1,4,85,2,3,0,781.73,nonwex2_8.png
1,4,86,1,2,0,667.57,nonwin1.png
1,4,87,3,3,1,657.47,nonwin2_9.png
1,4,88,3,3,1,655.34,nonwex12.png
1,4,89,2,3,0,637.22,nonwin12.png
1,4,90,2,3,0,739.05,nonwex2_9.png
1,4,91,2,3,0,632.91,nonwex6.png
1,4,92,1,2,0,686.85,nonwex2_11.png
1,4,93,2,3,0,700.72,nonwin1.png
1,4,94,2,2,1,778.59,nonwin3.png
1,4,95,3,3,1,584.45,nonwin7.png
1,4,96,3,3,1,590.34,nonwex2_7.png
1,4,97,2,3,0,628.18,nonwex1.png
1,4,98,3,2,0,754.04,nonwin11.png
1,4,99,3,3,1,671.93,nonwin2_6.png
1,4,100,3,3,1,589.8,nonwex10.png
1,4,101,3,3,1,619.65,nonwin2_10.png
1,4,102,3,3,1,553.53,nonwin3.png
1,4,103,2,3,0,695.45,nonwin8.png
1,4,104,3,3,1,541.31,nonwin8.png
1,4,105,3,3,1,611.21,nonwin1.png
1,4,106,3,3,1,537.08,nonwex2_10.png
1,4,107,3,2,0,758.91,nonwex2_2.png
1,4,108,2,3,0,332.46,nonwex2_11.png
1,4,109,2,3,0,618.66,nonwin2_2.png
1,4,110,3,3,1,640.58,nonwin12.png
1,4,111,3,3,1,310.41,nonwin2_1.png
1,4,112,3,3,1,276.27,nonwex2_3.png
1,4,113,3,3,1,266.18,nonwex8.png
1,4,114,2,3,0,287.94,nonwin2_5.png
1,4,115,3,3,1,133.86,nonwex4.png
1,4,116,3,0,0,0,nonwex2_11.png
1,4,117,3,3,1,225.66,nonwex1.png
1,4,118,2,3,0,367.53,nonwin9.png
1,4,119,2,3,0,373.43,nonwex2.png
1,4,120,2,3,0,275.29,nonwin2_11.png
1,4,121,3,3,1,281.11,nonwex6.png
1,4,122,2,3,0,431.02,nonwin2_12.png
1,4,123,3,3,1,180.89,nonwex2_8.png
1,4,124,2,0,0,0,nonwin2_7.png
1,4,125,3,3,1,288.66,nonwin2_12.png
1,4,126,3,3,1,510.5,nonwex3.png
1,4,127,3,3,1,340.43,nonwex2_4.png
1,4,128,3,3,1,650.32,nonwex11.png
1,4,129,3,3,1,456.18,nonwin2_7.png
1,4,130,3,3,1,646.08,nonwin2_8.png
1,4,131,3,3,1,283.92,nonwin9.png
1,4,132,3,3,1,329.8,nonwex7.png
1,4,133,3,3,1,263.62,nonwex9.png
1,4,134,3,3,1,1021.53,nonwin2_4.png
1,4,135,3,3,1,923.46,nonwex5.png
1,4,136,3,3,1,505.31,nonwin2_2.png
1,4,137,2,3,0,223.11,nonwex2_5.png
1,4,138,3,3,1,12.97,nonwex2_9.png
1,4,139,3,3,1,106.88,nonwex2.png
1,4,140,3,3,1,456.74,nonwin2_11.png
1,4,141,3,2,0,374.68,nonwex2_1.png
1,4,142,3,3,1,12.52,nonwex2_12.png
1,4,143,3,3,1,98.4,nonwin2_5.png
1,4,144,3,2,0,520.27,nonwex2_5.png
1,5,1,1,1,1,716.72,nonwin2_7.png
1,5,2,2,1,0,394.6,nonwin2_7.png
1,5,3,1,1,1,440.47,nonwex1.png
1,5,4,1,1,1,590.36,nonwex2_4.png
1,5,5,1,1,1,660.18,nonwin6.png
1,5,6,1,1,1,570.11,nonwex2_7.png
1,5,7,1,1,1,626.64,nonwex9.png
1,5,8,1,1,1,581.85,nonwex12.png
1,5,9,1,1,1,491.71,nonwin5.png
1,5,10,1,1,1,673.56,nonwin2_3.png
1,5,11,1,1,1,663.48,nonwex8.png
1,5,12,1,1,1,725.36,nonwin9.png
1,5,13,3,2,0,635.23,nonwin2_7.png
1,5,14,1,1,1,697.1,nonwex5.png
1,5,15,1,1,1,638.98,nonwin12.png
1,5,16,1,1,1,684.85,nonwex7.png
1,5,17,2,1,0,938.74,nonwin2_3.png
1,5,18,2,2,1,800.55,nonwin12.png
1,5,19,1,1,1,662.42,nonwin8.png
1,5,20,1,1,1,796.32,nonwin2_8.png
1,5,21,3,3,1,730.23,nonwin2_3.png
1,5,22,1,2,0,743.98,nonwin1.png
1,5,23,1,1,1,965.99,nonwin2_11.png
1,5,24,1,1,1,755.84,nonwin2_4.png
1,5,25,1,1,1,793.67,nonwin7.png
1,5,26,1,1,1,575.55,nonwex2_6.png
1,5,27,1,1,1,653.47,nonwin2_9.png
1,5,28,3,2,0,635.34,nonwin12.png
1,5,29,1,1,1,729.17,nonwex6.png
1,5,30,1,1,1,639.09,nonwex2_1.png
1,5,31,1,1,1,660.95,nonwex2_3.png
1,5,32,1,1,1,538.83,nonwin3.png
1,5,33,2,2,1,808.72,nonwex2_6.png
1,5,34,1,2,0,758.59,nonwin2_10.png
1,5,35,2,2,1,836.47,nonwex5.png
1,5,36,2,2,1,690.33,nonwin7.png
1,5,37,2,2,1,728.18,nonwin2_8.png
1,5,38,1,1,1,846.09,nonwin4.png
1,5,39,1,1,1,899.96,nonwin11.png
1,5,40,1,1,1,833.83,nonwex2.png
1,5,41,2,2,1,687.67,nonwex2_1.png
1,5,42,1,1,1,749.55,nonwex2_9.png
1,5,43,2,2,1,675.44,nonwex7.png
1,5,44,1,2,0,753.26,nonwex10.png
1,5,45,2,2,1,599.14,nonwin11.png
1,5,46,2,3,0,693.02,nonwex10.png
1,5,47,2,2,1,578.91,nonwin4.png
1,5,48,1,1,1,744.82,nonwex2_2.png
1,5,49,2,2,1,750.66,nonwin9.png
1,5,50,1,1,1,780.57,nonwex4.png
1,5,51,2,2,1,690.43,nonwex2_4.png
1,5,52,2,2,1,712.24,nonwex2_7.png
1,5,53,3,2,0,710.18,nonwin2_8.png
1,5,54,2,2,1,948.07,nonwex2_9.png
1,5,55,2,2,1,785.86,nonwex2.png
1,5,56,2,2,1,703.76,nonwin2_9.png
1,5,57,1,1,1,709.67,nonwex2_12.png
1,5,58,1,1,1,707.52,nonwex3.png
1,5,59,2,2,1,713.4,nonwex4.png
1,5,60,2,2,1,663.25,nonwin2_4.png
1,5,61,1,1,1,813.15,nonwex2_8.png
1,5,62,2,2,1,706.99,nonwex2_12.png
1,5,63,2,2,1,688.89,nonwex6.png
1,5,64,1,1,1,790.79,nonwin2.png
1,5,65,3,2,0,740.63,nonwex2_4.png
1,5,66,2,3,0,882.48,nonwex12.png
1,5,67,3,3,1,360.38,nonwex12.png
1,5,68,2,2,1,830.29,nonwex3.png
1,5,69,1,1,1,892.09,nonwin2_6.png
1,5,70,2,3,0,681.98,nonwex9.png
1,5,71,2,2,1,663.84,nonwin2_11.png
1,5,72,1,2,0,621.77,nonwex2_5.png
1,5,73,2,2,1,659.62,nonwin2_10.png
1,5,74,3,2,0,689.52,nonwin2_9.png
1,5,75,3,2,0,751.38,nonwex7.png
1,5,76,2,2,1,765.22,nonwex8.png
1,5,77,2,2,1,627.13,nonwin5.png
1,5,78,1,1,1,688.96,nonwin2_2.png
1,5,79,2,2,1,654.83,nonwin1.png
1,5,80,1,2,0,700.76,nonwex2_10.png
1,5,81,1,1,1,722.61,nonwin2_1.png
1,5,82,2,2,1,704.5,nonwex2_8.png
1,5,83,3,2,0,654.38,nonwin2_11.png
1,5,84,2,1,0,836.26,nonwex2_3.png
1,5,85,2,2,1,594.12,nonwin3.png
1,5,86,2,2,1,679.98,nonwex1.png
1,5,87,2,2,1,861.83,nonwin2_2.png
1,5,88,3,2,0,707.73,nonwex2_9.png
1,5,89,3,2,0,505.55,nonwex1.png
1,5,90,2,2,1,703.45,nonwin2.png
1,5,91,2,2,1,661.36,nonwex2_5.png
1,5,92,3,2,0,467.22,nonwex2_5.png
1,5,93,3,2,0,769.08,nonwin2_2.png
1,5,94,3,3,1,895,nonwex2_7.png
1,5,95,3,2,0,804.84,nonwin11.png
1,5,96,2,1,0,858.72,nonwin6.png
1,5,97,3,3,1,824.61,nonwex10.png
1,5,98,3,2,0,750.48,nonwex2.png
1,5,99,1,2,0,692.3,nonwex11.png
1,5,100,2,2,1,834.2,nonwin2_1.png
1,5,101,3,2,0,688.06,nonwin9.png
1,5,102,1,2,0,717.97,nonwin10.png
1,5,103,1,2,0,659.82,nonwex2_11.png
1,5,104,1,2,0,809.7,nonwin2_5.png
1,5,105,3,2,0,823.56,nonwin7.png
1,5,106,2,2,1,845.47,nonwin10.png
1,5,107,3,2,0,579.32,nonwex6.png
1,5,108,2,2,1,849.21,nonwex2_10.png
1,5,109,3,3,1,631.03,nonwex2_10.png
1,5,110,3,2,0,684.95,nonwex2_8.png
1,5,111,3,2,0,778.83,nonwex2_3.png
1,5,112,1,2,0,664.64,nonwin2_12.png
1,5,113,3,2,0,678.57,nonwin3.png
1,5,114,3,2,0,884.45,nonwin4.png
1,5,115,2,2,1,802.33,nonwin8.png
1,5,116,3,2,0,648.14,nonwex2_6.png
1,5,117,2,2,1,622,nonwin2_12.png
1,5,118,2,1,0,779.9,nonwin2_5.png
1,5,119,2,2,1,1001.8,nonwex2_2.png
1,5,120,3,3,1,911.7,nonwex2_1.png
1,5,121,3,2,0,605.53,nonwex3.png
1,5,122,3,2,0,627.41,nonwin2_4.png
1,5,123,3,2,0,593.29,nonwin2_5.png
1,5,124,3,2,0,535.13,nonwin10.png
1,5,125,3,2,0,765.04,nonwin2_1.png
1,5,126,3,3,1,778.92,nonwin2_10.png
1,5,127,2,3,0,752.8,nonwin2_6.png
1,5,128,3,3,1,622.62,nonwin8.png
1,5,129,3,3,1,660.48,nonwin1.png
1,5,130,3,2,0,602.36,nonwex2_2.png
1,5,131,3,3,1,680.27,nonwex8.png
1,5,132,3,3,1,526.1,nonwin2_12.png
1,5,133,3,3,1,652.03,nonwin5.png
1,5,134,3,2,0,681.85,nonwex5.png
1,5,135,3,3,1,655.76,nonwex2_12.png
1,5,136,3,3,1,645.61,nonwin2_6.png
1,5,137,3,3,1,803.48,nonwin2.png
1,5,138,2,2,1,681.37,nonwex11.png
1,5,139,3,2,0,479.23,nonwin6.png
1,5,140,3,2,0,445.13,nonwex11.png
1,5,141,2,2,1,738.98,nonwex2_11.png
1,5,142,3,2,0,688.88,nonwex4.png
1,5,143,3,3,1,646.72,nonwex2_11.png
1,5,144,3,3,1,676.63,nonwex9.png
1,6,1,1,1,1,790.67,nonwex9.png
1,6,2,1,1,1,591.21,nonwex1.png
1,6,3,1,1,1,605.03,nonwin2_4.png
1,6,4,1,1,1,522.89,nonwex2_5.png
1,6,5,1,1,1,504.76,nonwex2_8.png
1,6,6,1,1,1,526.69,nonwin2_8.png
1,6,7,1,1,1,500.57,nonwin2_1.png
1,6,8,1,1,1,522.41,nonwex2_3.png
1,6,9,1,1,1,592.28,nonwex2_9.png
1,6,10,1,1,1,550.16,nonwex2_4.png
1,6,11,1,1,1,684.07,nonwex3.png
1,6,12,1,1,1,729.89,nonwin3.png
1,6,13,1,1,1,551.75,nonwin2_9.png
1,6,14,2,1,0,701.69,nonwex2_5.png
1,6,15,1,1,1,643.49,nonwex2_12.png
1,6,16,1,1,1,761.42,nonwex8.png
1,6,17,1,1,1,519.26,nonwex7.png
1,6,18,1,1,1,597.12,nonwex2_11.png
1,6,19,1,1,1,571.05,nonwex2_2.png
1,6,20,1,1,1,656.92,nonwin2.png
1,6,21,1,1,1,726.75,nonwex2_10.png
1,6,22,1,1,1,540.66,nonwex2_1.png
1,6,23,2,1,0,546.54,nonwex2_8.png
1,6,24,2,1,0,600.41,nonwin2_4.png
1,6,25,2,2,1,646.29,nonwex2_11.png
1,6,26,1,1,1,692.11,nonwin11.png
1,6,27,2,2,1,681.99,nonwex2_9.png
1,6,28,1,1,1,663.9,nonwin1.png
1,6,29,1,1,1,517.74,nonwex2_7.png
1,6,30,1,1,1,699.65,nonwex5.png
1,6,31,1,1,1,585.51,nonwin6.png
1,6,32,1,1,1,671.35,nonwex12.png
1,6,33,1,1,1,717.26,nonwin2_10.png
1,6,34,2,2,1,771.1,nonwex2_12.png
1,6,35,1,1,1,576.97,nonwin4.png
1,6,36,3,2,0,582.82,nonwex2_12.png
1,6,37,2,2,1,708.77,nonwin2_1.png
1,6,38,2,2,1,698.64,nonwex2_1.png
1,6,39,2,2,1,736.47,nonwex2_4.png
1,6,40,1,1,1,702.39,nonwin2_2.png
1,6,41,2,2,1,620.23,nonwex8.png
1,6,42,1,0,0,0,nonwin2_11.png
1,6,43,1,1,1,808,nonwin2_3.png
1,6,44,3,2,0,557.87,nonwex2_4.png
1,6,45,2,2,1,619.74,nonwin3.png
1,6,46,2,2,1,633.6,nonwin2.png
1,6,47,1,2,0,671.49,nonwex6.png
1,6,48,1,1,1,869.34,nonwin2_5.png
1,6,49,1,2,0,819.21,nonwex11.png
1,6,50,2,2,1,761.06,nonwex2_10.png
1,6,51,2,2,1,702.98,nonwex2_7.png
1,6,52,1,1,1,828.82,nonwin2_12.png
1,6,53,2,2,1,746.76,nonwin2_9.png
1,6,54,2,2,1,624.6,nonwex5.png
1,6,55,1,1,1,750.48,nonwin5.png
1,6,56,2,1,0,764.28,nonwex7.png
1,6,57,1,1,1,738.18,nonwex4.png
1,6,58,1,2,0,720.09,nonwex10.png
1,6,59,2,2,1,653.96,nonwin6.png
1,6,60,2,1,0,723.8,nonwin2_8.png
1,6,61,2,2,1,705.71,nonwex4.png
1,6,62,2,2,1,671.56,nonwin5.png
1,6,63,1,2,0,669.46,nonwin2_7.png
1,6,64,3,3,1,763.28,nonwex2_5.png
1,6,65,2,2,1,577.18,nonwex2_3.png
1,6,66,2,1,0,759.07,nonwin4.png
1,6,67,2,2,1,668.94,nonwin1.png
1,6,68,2,1,0,762.79,nonwin2_7.png
1,6,69,2,2,1,728.69,nonwin2_10.png
1,6,70,1,2,0,846.51,nonwex2_6.png
1,6,71,3,1,0,876.42,nonwex2_3.png
1,6,72,3,2,0,602.3,nonwin2_1.png
1,6,73,3,2,0,608.14,nonwex2_9.png
1,6,74,3,2,0,774.01,nonwin2_4.png
1,6,75,2,2,1,803.92,nonwin2_3.png
1,6,76,1,2,0,697.72,nonwin8.png
1,6,77,1,2,0,567.64,nonwin9.png
1,6,78,1,1,1,685.49,nonwex2.png
1,6,79,2,2,1,659.41,nonwin11.png
1,6,80,1,2,0,673.23,nonwin7.png
1,6,81,2,2,1,647.11,nonwex2_6.png
1,6,82,2,1,0,773.04,nonwex2.png
1,6,83,3,2,0,546.9,nonwex2.png
1,6,84,3,2,0,696.74,nonwex2_8.png
1,6,85,2,1,0,702.62,nonwin2_2.png
1,6,86,3,1,0,692.5,nonwin6.png
1,6,87,2,2,1,666.4,nonwex11.png
1,6,88,2,2,1,672.22,nonwin9.png
1,6,89,2,2,1,782.15,nonwex1.png
1,6,90,3,2,0,740.01,nonwex2_10.png
1,6,91,3,2,0,761.88,nonwex8.png
1,6,92,1,1,1,815.76,nonwin10.png
1,6,93,3,2,0,557.58,nonwex11.png
1,6,94,3,3,1,715.48,nonwex2_6.png
1,6,95,3,2,0,769.38,nonwex1.png
1,6,96,2,2,1,799.22,nonwin2_11.png
1,6,97,2,1,0,725.03,nonwex2_2.png
1,6,98,2,2,1,835.01,nonwex9.png
1,6,99,3,1,0,680.81,nonwin2_9.png
1,6,100,3,2,0,822.72,nonwex2_2.png
1,6,101,2,2,1,764.62,nonwin7.png
1,6,102,3,3,1,602.43,nonwex9.png
1,6,103,1,2,0,528.33,nonwin12.png
1,6,104,3,3,1,862.24,nonwin7.png
1,6,105,3,2,0,772.05,nonwin5.png
1,6,106,1,2,0,721.98,nonwin2_6.png
1,6,107,3,3,1,711.85,nonwin4.png
1,6,108,3,3,1,653.7,nonwin2_3.png
1,6,109,2,3,0,675.54,nonwin2_6.png
1,6,110,2,3,0,697.42,nonwin2_5.png
1,6,111,3,3,1,839.35,nonwin2_10.png
1,6,112,2,3,0,709.19,nonwin10.png
1,6,113,3,3,1,619.08,nonwin9.png
1,6,114,3,3,1,816.92,nonwin2.png
1,6,115,2,3,0,542.82,nonwin12.png
1,6,116,3,3,1,612.68,nonwin2_7.png
1,6,117,3,3,1,650.57,nonwex2_7.png
1,6,118,2,2,1,720.39,nonwex3.png
1,6,119,3,2,0,718.32,nonwin11.png
1,6,120,2,2,1,876.19,nonwex6.png
1,6,121,3,3,1,866.02,nonwin2_5.png
1,6,122,3,3,1,727.94,nonwin2_8.png
1,6,123,2,3,0,741.76,nonwin2_12.png
1,6,124,3,3,1,771.64,nonwex3.png
1,6,125,3,2,0,809.56,nonwex4.png
1,6,126,2,3,0,727.41,nonwin8.png
1,6,127,3,3,1,653.29,nonwex6.png
1,6,128,3,2,0,811.13,nonwin2_11.png
1,6,129,3,2,0,873.04,nonwin3.png
1,6,130,2,2,1,726.93,nonwex12.png
1,6,131,3,2,0,724.76,nonwex5.png
1,6,132,3,3,1,818.62,nonwin8.png
1,6,133,2,3,0,784.48,nonwex10.png
1,6,134,3,2,0,686.4,nonwin2_2.png
1,6,135,3,3,1,588.26,nonwex10.png
1,6,136,3,2,0,658.15,nonwex7.png
1,6,137,3,3,1,824.03,nonwin12.png
1,6,138,3,3,1,941.87,nonwin2_6.png
1,6,139,3,3,1,875.79,nonwin1.png
1,6,140,3,2,0,793.63,nonwin2_12.png
1,6,141,3,3,1,591.52,nonwex12.png
1,6,142,3,3,1,613.32,nonwin10.png
1,6,143,3,2,0,595.23,nonwex2_1.png
1,6,144,3,3,1,657.13,nonwex2_11.png
1,7,1,1,1,1,710.98,nonwin3.png
1,7,2,1,1,1,532.86,nonwex2_1.png
1,7,3,1,1,1,562.72,nonwin10.png
1,7,4,1,1,1,592.64,nonwin9.png
1,7,5,1,1,1,494.48,nonwex2_3.png
1,7,6,1,1,1,380.37,nonwin2_4.png
1,7,7,1,1,1,386.24,nonwin2_9.png
1,7,8,1,1,1,296.07,nonwex2.png
1,7,9,1,1,1,341.98,nonwin2_2.png
1,7,10,2,0,0,0,nonwin3.png
1,7,11,1,1,1,561.68,nonwex2_11.png
1,7,12,1,1,1,615.6,nonwin6.png
1,7,13,2,0,0,0,nonwin10.png
1,7,14,1,1,1,571.32,nonwex2_2.png
1,7,15,1,0,0,0,nonwin2_5.png
1,7,16,1,1,1,631.07,nonwin12.png
1,7,17,1,1,1,556.98,nonwex2_4.png
1,7,18,1,1,1,530.86,nonwin2_3.png
1,7,19,2,2,1,608.73,nonwin2_3.png
1,7,20,1,1,1,654.6,nonwin2_1.png
1,7,21,1,1,1,772.46,nonwin1.png
1,7,22,1,1,1,610.3,nonwin2.png
1,7,23,2,2,1,808.16,nonwin12.png
1,7,24,1,0,0,0,nonwin5.png
1,7,25,1,1,1,587.95,nonwex2_12.png
1,7,26,2,2,1,681.83,nonwin1.png
1,7,27,1,1,1,607.69,nonwex2_10.png
1,7,28,1,1,1,597.52,nonwex2_8.png
1,7,29,1,1,1,883.41,nonwex11.png
1,7,30,2,2,1,609.26,nonwin5.png
1,7,31,1,1,1,655.2,nonwex12.png
1,7,32,2,2,1,717.08,nonwex2_2.png
1,7,33,2,1,0,738.91,nonwex2_1.png
1,7,34,1,1,1,664.82,nonwex10.png
1,7,35,1,2,0,638.69,nonwin2_6.png
1,7,36,1,1,1,628.5,nonwex3.png
1,7,37,2,2,1,554.43,nonwex10.png
1,7,38,2,2,1,880.27,nonwex2_4.png
1,7,39,1,1,1,830.2,nonwin2_8.png
1,7,40,1,2,0,676.05,nonwin2_11.png
1,7,41,1,1,1,697.9,nonwex8.png
1,7,42,2,2,1,663.75,nonwex2_8.png
1,7,43,1,2,0,661.67,nonwin2_10.png
1,7,44,1,2,0,723.55,nonwin7.png
1,7,45,2,2,1,681.41,nonwin2_4.png
1,7,46,1,1,1,903.31,nonwin11.png
1,7,47,3,2,0,765.17,nonwex2_2.png
1,7,48,1,2,0,731.03,nonwex2_5.png
1,7,49,1,2,0,752.89,nonwin4.png
1,7,50,2,3,0,710.77,nonwin4.png
1,7,51,2,2,1,812.62,nonwex2_11.png
1,7,52,3,2,0,758.45,nonwex2_4.png
1,7,53,1,1,1,688.4,nonwex4.png
1,7,54,1,1,1,670.25,nonwin2_12.png
1,7,55,3,2,0,612.09,nonwin4.png
1,7,56,2,2,1,786.03,nonwin2_9.png
1,7,57,1,2,0,711.87,nonwex2_7.png
1,7,58,2,1,0,717.71,nonwex2_12.png
1,7,59,2,2,1,507.59,nonwex2_7.png
1,7,60,3,2,0,681.51,nonwin2_4.png
1,7,61,2,2,1,631.34,nonwin2_5.png
1,7,62,3,3,1,709.25,nonwex2_11.png
1,7,63,2,2,1,571.1,nonwin2_11.png
1,7,64,1,2,0,600.99,nonwex9.png
1,7,65,1,2,0,662.83,nonwex6.png
1,7,66,1,2,0,612.69,nonwex2_6.png
1,7,67,1,0,0,0,nonwin2_7.png
1,7,68,2,2,1,728.49,nonwex4.png
1,7,69,3,2,0,742.36,nonwin1.png
1,7,70,2,0,0,0,nonwin11.png
1,7,71,2,2,1,770.11,nonwin2_10.png
1,7,72,2,2,1,799.99,nonwex2_6.png
1,7,73,2,2,1,653.84,nonwex6.png
1,7,74,2,0,0,0,nonwin2_7.png
1,7,75,3,2,0,417.58,nonwex10.png
1,7,76,2,1,0,679.45,nonwin2_8.png
1,7,77,3,2,0,517.33,nonwin10.png
1,7,78,3,2,0,699.22,nonwin2_5.png
1,7,79,1,3,0,673.02,nonwin8.png
1,7,80,2,3,0,662.9,nonwin2_1.png
1,7,81,1,2,0,844.8,nonwex1.png
1,7,82,1,3,0,618.69,nonwex2_9.png
1,7,83,2,2,1,448.56,nonwex2_5.png
1,7,84,2,2,1,638.42,nonwex3.png
1,7,85,3,2,0,644.28,nonwin5.png
1,7,86,3,3,1,762.14,nonwin2_3.png
1,7,87,2,2,1,752.05,nonwex2_9.png
1,7,88,2,3,0,605.94,nonwin8.png
1,7,89,2,3,0,659.81,nonwin2.png
1,7,90,2,2,1,689.69,nonwin2_2.png
1,7,91,3,3,1,903.57,nonwin2_1.png
1,7,92,3,3,1,845.37,nonwin2_11.png
1,7,93,2,2,1,699.27,nonwex2_3.png
1,7,94,2,2,1,569.17,nonwex2.png
1,7,95,2,3,0,567.02,nonwex1.png
1,7,96,1,2,0,588.92,nonwex7.png
1,7,97,2,2,1,738.76,nonwin7.png
1,7,98,3,3,1,688.62,nonwex2_7.png
1,7,99,3,2,0,558.53,nonwex1.png
1,7,100,2,3,0,708.41,nonwex12.png
1,7,101,2,3,0,1018.28,nonwex7.png
1,7,102,3,3,1,664.14,nonwex2_3.png
1,7,103,2,3,0,598,nonwex2_10.png
1,7,104,2,2,1,619.85,nonwin6.png
1,7,105,3,2,0,457.76,nonwin6.png
1,7,106,2,3,0,591.62,nonwin2_12.png
1,7,107,2,3,0,317.46,nonwex8.png
1,7,108,3,3,1,691.4,nonwex2_10.png
1,7,109,2,3,0,609.23,nonwex11.png
1,7,110,3,3,1,647.14,nonwex12.png
1,7,111,3,2,0,596.95,nonwin2_2.png
1,7,112,3,3,1,818.83,nonwex2_12.png
1,7,113,2,3,0,696.75,nonwin2_6.png
1,7,114,3,3,1,734.64,nonwex8.png
1,7,115,1,3,0,740.51,nonwex5.png
1,7,116,3,2,0,554.31,nonwin2_9.png
1,7,117,3,2,0,416.22,nonwex7.png
1,7,118,3,3,1,318.09,nonwin3.png
1,7,119,3,3,1,691.98,nonwex2_5.png
1,7,120,3,3,1,713.84,nonwin2_6.png
1,7,121,3,3,1,663.68,nonwin2.png
1,7,122,3,3,1,829.62,nonwex2_9.png
1,7,123,3,3,1,595.47,nonwex2.png
1,7,124,2,2,1,777.36,nonwin9.png
1,7,125,3,2,0,647.2,nonwin7.png
1,7,126,3,2,0,773.06,nonwex2_1.png
1,7,127,3,2,0,898.93,nonwex3.png
1,7,128,3,3,1,864.83,nonwex2_6.png
1,7,129,2,2,1,726.7,nonwex9.png
1,7,130,2,2,1,644.58,nonwex5.png
1,7,131,3,3,1,682.41,nonwin2_10.png
1,7,132,3,2,0,704.33,nonwex9.png
1,7,133,3,3,1,598.21,nonwex5.png
1,7,134,3,3,1,564.07,nonwex6.png
1,7,135,3,3,1,497.94,nonwin2_12.png
1,7,136,3,2,0,647.83,nonwex2_8.png
1,7,137,3,2,0,669.7,nonwin11.png
1,7,138,3,3,1,627.57,nonwin9.png
1,7,139,3,2,0,529.41,nonwex11.png
1,7,140,3,3,1,639.32,nonwin2_7.png
1,7,141,3,2,0,541.13,nonwin2_8.png
1,7,142,3,2,0,578.99,nonwex4.png
1,7,143,3,3,1,584.93,nonwin12.png
1,7,144,3,2,0,678.81,nonwin8.png
1,8,1,1,1,1,570.84,nonwin2_8.png
1,8,2,2,1,0,360.7,nonwin2_8.png
1,8,3,1,1,1,662.63,nonwex2_7.png
1,8,4,1,1,1,708.48,nonwex2_10.png
1,8,5,1,1,1,634.33,nonwex11.png
1,8,6,1,1,1,592.22,nonwin2_1.png
1,8,7,1,1,1,550.1,nonwex5.png
1,8,8,1,1,1,563.92,nonwex2_3.png
1,8,9,1,1,1,585.86,nonwex2_11.png
1,8,10,2,2,1,599.7,nonwex2_11.png
1,8,11,1,1,1,829.57,nonwin2_9.png
1,8,12,1,1,1,683.48,nonwin2_2.png
1,8,13,1,1,1,729.28,nonwin2_11.png
1,8,14,2,2,1,879.18,nonwex2_3.png
1,8,15,1,1,1,733.07,nonwex10.png
1,8,16,1,1,1,554.97,nonwex2_9.png
1,8,17,1,1,1,816.79,nonwex2.png
1,8,18,2,2,1,670.72,nonwex10.png
1,8,19,1,1,1,644.56,nonwin6.png
1,8,20,1,1,1,626.46,nonwin12.png
1,8,21,1,1,1,592.33,nonwex2_4.png
1,8,22,1,1,1,662.18,nonwin2_3.png
1,8,23,1,1,1,764.07,nonwin3.png
1,8,24,1,1,1,793.9,nonwex2_12.png
1,8,25,1,1,1,695.83,nonwin4.png
1,8,26,1,1,1,773.69,nonwin7.png
1,8,27,1,1,1,779.58,nonwex2_6.png
1,8,28,1,1,1,905.46,nonwex2_5.png
1,8,29,1,1,1,751.28,nonwin10.png
1,8,30,2,2,1,749.15,nonwin12.png
1,8,31,2,2,1,971.06,nonwex2_9.png
1,8,32,1,2,0,1040.95,nonwin2_4.png
1,8,33,2,2,1,494.8,nonwin2_4.png
1,8,34,1,2,0,716.67,nonwex12.png
1,8,35,1,1,1,770.54,nonwin2_10.png
1,8,36,2,2,1,528.39,nonwex12.png
1,8,37,1,1,1,678.3,nonwin2_5.png
1,8,38,3,2,0,780.13,nonwex2_9.png
1,8,39,2,1,0,842.01,nonwin2_2.png
1,8,40,2,2,1,823.93,nonwex11.png
1,8,41,3,3,1,725.8,nonwex12.png
1,8,42,2,2,1,635.66,nonwex2_5.png
1,8,43,2,1,0,737.5,nonwex2_10.png
1,8,44,1,2,0,711.39,nonwin11.png
1,8,45,1,2,0,765.28,nonwin5.png
1,8,46,3,2,0,763.16,nonwex2_3.png
1,8,47,1,1,1,736.98,nonwex1.png
1,8,48,2,2,1,518.88,nonwin11.png
1,8,49,1,2,0,892.72,nonwin2_6.png
1,8,50,2,2,1,722.59,nonwin10.png
1,8,51,2,2,1,664.46,nonwin5.png
1,8,52,2,2,1,758.39,nonwex2.png
1,8,53,1,2,0,980.24,nonwex4.png
1,8,54,2,2,1,658.13,nonwin2_5.png
1,8,55,3,2,0,615.95,nonwex2_5.png
1,8,56,1,2,0,797.9,nonwex9.png
1,8,57,2,1,0,731.75,nonwin2_11.png
1,8,58,2,3,0,737.63,nonwex9.png
1,8,59,3,3,1,743.5,nonwin11.png
1,8,60,2,3,0,733.34,nonwin2_10.png
1,8,61,3,2,0,827.21,nonwin10.png
1,8,62,1,3,0,777.12,nonwin9.png
1,8,63,1,2,0,758.98,nonwin2.png
1,8,64,3,3,1,804.87,nonwin2_8.png
1,8,65,2,2,1,826.74,nonwin3.png
1,8,66,2,2,1,792.55,nonwex2_4.png
1,8,67,2,2,1,718.48,nonwin2_1.png
1,8,68,3,3,1,676.3,nonwin3.png
1,8,69,1,2,0,746.19,nonwex2_2.png
1,8,70,2,2,1,760.05,nonwin6.png
1,8,71,1,2,0,717.91,nonwex3.png
1,8,72,2,2,1,779.81,nonwin2_3.png
1,8,73,2,3,0,1009.74,nonwex2_2.png
1,8,74,1,2,0,855.57,nonwex2_1.png
1,8,75,2,2,1,685.46,nonwex5.png
1,8,76,3,2,0,771.34,nonwin12.png
1,8,77,2,2,1,865.21,nonwex1.png
1,8,78,3,2,0,831.09,nonwin6.png
1,8,79,3,2,0,812.91,nonwex2_11.png
1,8,80,1,2,0,706.82,nonwex7.png
1,8,81,3,3,1,776.7,nonwex2_2.png
1,8,82,2,2,1,646.52,nonwex4.png
1,8,83,2,2,1,620.44,nonwex2_12.png
1,8,84,2,2,1,570.28,nonwin9.png
1,8,85,2,2,1,600.18,nonwex2_7.png
1,8,86,1,2,0,550.05,nonwin1.png
1,8,87,2,2,1,851.89,nonwin2.png
1,8,88,3,1,0,729.78,nonwin2_2.png
1,8,89,2,2,1,655.6,nonwin4.png
1,8,90,3,3,1,797.5,nonwin2.png
1,8,91,3,3,1,851.38,nonwin2_4.png
1,8,92,1,2,0,809.26,nonwex8.png
1,8,93,3,3,1,807.15,nonwin2_10.png
1,8,94,2,2,1,637,nonwin1.png
1,8,95,2,2,1,594.89,nonwex3.png
1,8,96,1,2,0,584.7,nonwin2_12.png
1,8,97,2,1,0,654.6,nonwin2_9.png
1,8,98,2,2,1,556.52,nonwin2_12.png
1,8,99,3,3,1,882.42,nonwin2_11.png
1,8,100,3,3,1,600.22,nonwex9.png
1,8,101,2,3,0,734.1,nonwex8.png
1,8,102,3,2,0,659.96,nonwin5.png
1,8,103,3,2,0,657.83,nonwex2_7.png
1,8,104,3,3,1,599.76,nonwex2_10.png
1,8,105,3,2,0,557.63,nonwex3.png
1,8,106,2,2,1,739.51,nonwex2_1.png
1,8,107,2,3,0,601.33,nonwex2_6.png
1,8,108,3,3,1,719.25,nonwex2.png
1,8,109,3,3,1,605.06,nonwex10.png
1,8,110,1,0,0,0,nonwex6.png
1,8,111,3,2,0,544.82,nonwin2_5.png
1,8,112,1,2,0,470.7,nonwex2_8.png
1,8,113,1,3,0,612.59,nonwin8.png
1,8,114,3,2,0,418.47,nonwin2_3.png
1,8,115,3,2,0,280.33,nonwex5.png
1,8,116,1,2,0,686.21,nonwin2_7.png
1,8,117,2,3,0,580.06,nonwex6.png
1,8,118,3,2,0,513.94,nonwin2_12.png
1,8,119,2,3,0,551.82,nonwin2_7.png
1,8,120,2,3,0,493.71,nonwin8.png
1,8,121,3,2,0,467.54,nonwex11.png
1,8,122,2,3,0,641.44,nonwex2_8.png
1,8,123,2,2,1,631.32,nonwin7.png
1,8,124,3,2,0,605.21,nonwex2_1.png
1,8,125,3,3,1,555.05,nonwex6.png
1,8,126,3,2,0,616.96,nonwin2_1.png
1,8,127,3,3,1,566.8,nonwin4.png
1,8,128,3,2,0,900.71,nonwin9.png
1,8,129,2,3,0,578.57,nonwin2_6.png
1,8,130,3,3,1,1024.45,nonwin2_9.png
1,8,131,3,2,0,790.28,nonwin2_7.png
1,8,132,3,3,1,604.13,nonwex1.png
1,8,133,2,0,0,0,nonwex7.png
1,8,134,3,3,1,487.93,nonwex2_6.png
1,8,135,3,3,1,229.78,nonwex2_8.png
1,8,136,3,3,1,731.67,nonwex8.png
1,8,137,3,3,1,593.53,nonwin8.png
1,8,138,3,2,0,519.42,nonwin2_6.png
1,8,139,3,3,1,389.27,nonwin1.png
1,8,140,3,3,1,363.15,nonwin7.png
1,8,141,3,3,1,72.99,nonwex7.png
1,8,142,3,3,1,238.89,nonwex2_4.png
1,8,143,3,3,1,284.75,nonwex4.png
1,8,144,3,2,0,778.67,nonwex2_12.png
1,9,1,1,1,1,846.84,nonwex2_12.png
1,9,2,1,1,1,444.64,nonwin11.png
1,9,3,1,1,1,370.51,nonwex6.png
1,9,4,1,1,1,296.41,nonwin9.png
1,9,5,1,1,1,262.29,nonwin10.png
1,9,6,1,1,1,308.13,nonwin6.png
1,9,7,1,1,1,290.02,nonwin8.png
1,9,8,1,1,1,343.92,nonwin2.png
1,9,9,1,1,1,485.79,nonwex2_9.png
1,9,10,1,1,1,491.68,nonwin5.png
1,9,11,1,1,1,361.54,nonwex4.png
1,9,12,1,1,1,639.4,nonwin3.png
1,9,13,2,2,1,605.28,nonwin10.png
1,9,14,1,1,1,611.18,nonwex2.png
1,9,15,1,1,1,641.05,nonwex9.png
1,9,16,3,2,0,518.9,nonwin10.png
1,9,17,2,2,1,612.75,nonwex2_12.png
1,9,18,1,1,1,834.68,nonwex2_3.png
1,9,19,1,1,1,760.54,nonwin2_12.png
1,9,20,2,2,1,646.42,nonwex4.png
1,9,21,1,1,1,628.24,nonwex2_2.png
1,9,22,1,1,1,786.16,nonwin12.png
1,9,23,1,1,1,672,nonwex7.png
1,9,24,1,1,1,717.91,nonwin2_6.png
1,9,25,2,1,0,635.77,nonwin2.png
1,9,26,2,1,0,601.61,nonwin5.png
1,9,27,1,1,1,695.52,nonwex2_5.png
1,9,28,1,1,1,677.39,nonwex10.png
1,9,29,2,2,1,659.22,nonwex2_9.png
1,9,30,2,2,1,753.15,nonwex10.png
1,9,31,2,2,1,806.99,nonwin8.png
1,9,32,1,1,1,756.89,nonwin2_2.png
1,9,33,2,2,1,642.75,nonwex2_3.png
1,9,34,1,1,1,696.63,nonwex2_4.png
1,9,35,1,1,1,854.52,nonwin7.png
1,9,36,1,2,0,740.38,nonwin2_1.png
1,9,37,1,2,0,682.22,nonwex11.png
1,9,38,1,2,0,760.13,nonwex2_7.png
1,9,39,2,2,1,805.95,nonwex2_4.png
1,9,40,2,2,1,723.87,nonwin2_2.png
1,9,41,3,3,1,721.71,nonwex2_4.png
1,9,42,1,2,0,743.61,nonwex12.png
1,9,43,1,2,0,725.42,nonwin4.png
1,9,44,2,2,1,731.36,nonwex2_5.png
1,9,45,2,2,1,721.23,nonwin2_6.png
1,9,46,1,1,1,895.07,nonwin2_7.png
1,9,47,1,2,0,716.92,nonwex3.png
1,9,48,2,1,0,890.86,nonwin2_12.png
1,9,49,2,2,1,736.71,nonwin2_7.png
1,9,50,1,1,1,758.59,nonwin2_5.png
1,9,51,2,3,0,772.47,nonwex12.png
1,9,52,1,2,0,698.34,nonwex2_11.png
1,9,53,1,2,0,776.19,nonwex2_8.png
1,9,54,2,2,1,718.02,nonwin9.png
1,9,55,2,2,1,915.97,nonwex2_11.png
1,9,56,2,2,1,745.83,nonwin11.png
1,9,57,2,2,1,575.68,nonwex2.png
1,9,58,2,2,1,733.54,nonwex6.png
1,9,59,1,1,1,747.44,nonwex1.png
1,9,60,1,1,1,729.28,nonwex2_6.png
1,9,61,3,3,1,807.18,nonwex2_11.png
1,9,62,2,2,1,685.06,nonwex7.png
1,9,63,2,2,1,730.88,nonwex11.png
1,9,64,3,3,1,872.8,nonwex4.png
1,9,65,1,3,0,750.63,nonwin2_4.png
1,9,66,2,2,1,684.55,nonwin7.png
1,9,67,3,3,1,826.4,nonwex2.png
1,9,68,1,2,0,752.29,nonwex2_1.png
1,9,69,1,1,1,870.12,nonwin1.png
1,9,70,1,1,1,756.02,nonwin2_8.png
1,9,71,1,2,0,737.9,nonwin2_3.png
1,9,72,1,2,0,679.79,nonwin2_11.png
1,9,73,2,2,1,749.64,nonwin6.png
1,9,74,3,1,0,667.52,nonwin2_2.png
1,9,75,2,2,1,809.41,nonwex2_1.png
1,9,76,2,2,1,935.29,nonwin3.png
1,9,77,1,2,0,829.13,nonwex8.png
1,9,78,3,3,1,778.99,nonwin8.png
1,9,79,2,1,0,824.9,nonwin2_8.png
1,9,80,3,0,0,0,nonwex10.png
1,9,81,1,2,0,652.62,nonwex5.png
1,9,82,3,2,0,754.47,nonwex2_9.png
1,9,83,2,2,1,792.37,nonwex2_7.png
1,9,84,1,2,0,734.21,nonwex2_10.png
1,9,85,2,2,1,748.14,nonwin12.png
1,9,86,2,2,1,633.99,nonwin2_5.png
1,9,87,3,3,1,783.88,nonwex2_3.png
1,9,88,1,2,0,757.76,nonwin2_10.png
1,9,89,3,2,0,875.57,nonwin7.png
1,9,90,3,2,0,665.49,nonwin5.png
1,9,91,2,3,0,791.35,nonwex5.png
1,9,92,2,2,1,741.21,nonwin4.png
1,9,93,3,2,0,683.07,nonwin3.png
1,9,94,1,2,0,608.98,nonwin2_9.png
1,9,95,2,2,1,726.85,nonwex3.png
1,9,96,2,2,1,716.73,nonwin2_10.png
1,9,97,2,2,1,666.6,nonwin2_9.png
1,9,98,3,3,1,856.46,nonwex2_1.png
1,9,99,2,3,0,806.32,nonwex2_6.png
1,9,100,2,2,1,868.23,nonwin2_1.png
1,9,101,2,2,1,690.05,nonwin2_11.png
1,9,102,2,2,1,711.93,nonwex2_2.png
1,9,103,3,3,1,773.84,nonwex6.png
1,9,104,3,3,1,795.72,nonwex11.png
1,9,105,2,3,0,809.59,nonwin2_4.png
1,9,106,2,3,0,639.45,nonwex8.png
1,9,107,3,3,1,629.26,nonwin2_12.png
1,9,108,2,3,0,635.14,nonwex2_10.png
1,9,109,3,3,1,681.05,nonwin11.png
1,9,110,3,3,1,774.91,nonwex2_7.png
1,9,111,3,3,1,756.82,nonwin4.png
1,9,112,2,3,0,698.67,nonwex2_8.png
1,9,113,3,3,1,736.55,nonwex2_12.png
1,9,114,3,3,1,758.41,nonwin2_5.png
1,9,115,2,2,1,836.32,nonwex1.png
1,9,116,3,2,0,754.12,nonwex7.png
1,9,117,3,3,1,863.97,nonwex2_6.png
1,9,118,3,3,1,757.92,nonwex1.png
1,9,119,3,3,1,699.75,nonwin2_6.png
1,9,120,2,3,0,689.61,nonwex9.png
1,9,121,3,3,1,615.5,nonwin2_10.png
1,9,122,3,3,1,797.4,nonwin2_9.png
1,9,123,3,3,1,763.26,nonwin9.png
1,9,124,2,3,0,801.12,nonwin1.png
1,9,125,3,3,1,631,nonwex9.png
1,9,126,3,3,1,636.9,nonwex12.png
1,9,127,3,3,1,650.72,nonwin2_8.png
1,9,128,3,2,0,808.66,nonwin2_11.png
1,9,129,3,3,1,782.49,nonwex2_8.png
1,9,130,3,2,0,804.41,nonwin2_7.png
1,9,131,3,3,1,978.28,nonwex2_2.png
1,9,132,3,2,0,592.08,nonwin6.png
1,9,133,2,3,0,622.01,nonwin2_3.png
1,9,134,3,2,0,547.87,nonwin12.png
1,9,135,3,2,0,593.68,nonwex5.png
1,9,136,3,2,0,498.28,nonwex3.png
1,9,137,3,2,0,560.17,nonwin2_4.png
1,9,138,3,2,0,870.05,nonwex8.png
1,9,139,3,2,0,723.92,nonwex2_5.png
1,9,140,3,2,0,700.42,nonwin2_1.png
1,9,141,3,3,1,682.34,nonwin1.png
1,9,142,3,2,0,600.2,nonwex2_10.png
1,9,143,3,3,1,606.05,nonwin2.png
1,9,144,3,3,1,467.94,nonwin2_3.png
1,10,1,1,1,1,813.83,nonwin2.png
1,10,2,1,1,1,275.68,nonwin6.png
1,10,3,1,1,1,457.5,nonwin2_11.png
1,10,4,1,1,1,303.42,nonwin3.png
1,10,5,1,1,1,237.23,nonwin10.png
1,10,6,2,1,0,323.17,nonwin6.png
1,10,7,1,1,1,681.03,nonwex8.png
1,10,8,1,2,0,718.93,nonwin2_3.png
1,10,9,2,2,1,644.81,nonwin2_11.png
1,10,10,1,1,1,698.65,nonwex10.png
1,10,11,1,1,1,656.54,nonwex2_7.png
1,10,12,1,1,1,638.39,nonwin2_8.png
1,10,13,1,1,1,684.24,nonwex2_10.png
1,10,14,1,1,1,898.16,nonwin2_1.png
1,10,15,2,2,1,800,nonwex10.png
1,10,16,1,2,0,781.91,nonwin2_10.png
1,10,17,1,1,1,715.79,nonwex2_3.png
1,10,18,1,1,1,673.6,nonwex2_9.png
1,10,19,1,1,1,615.48,nonwex2_2.png
1,10,20,1,1,1,501.39,nonwex2_12.png
1,10,21,1,1,1,555.25,nonwin4.png
1,10,22,1,1,1,537.08,nonwex2_1.png
1,10,23,2,2,1,631.02,nonwin2.png
1,10,24,1,1,1,652.9,nonwex1.png
1,10,25,1,1,1,658.77,nonwin7.png
1,10,26,1,1,1,560.63,nonwex3.png
1,10,27,1,1,1,654.52,nonwin2_7.png
1,10,28,1,1,1,604.36,nonwin2_6.png
1,10,29,2,2,1,578.25,nonwex2_1.png
1,10,30,1,1,1,584.13,nonwin5.png
1,10,31,2,2,1,662,nonwex2_7.png
1,10,32,2,2,1,635.82,nonwex2_2.png
1,10,33,2,2,1,705.75,nonwin10.png
1,10,34,2,2,1,599.62,nonwex1.png
1,10,35,2,3,0,909.51,nonwin2_3.png
1,10,36,2,2,1,723.33,nonwin2_1.png
1,10,37,3,2,0,849.24,nonwex10.png
1,10,38,1,2,0,743.12,nonwex6.png
1,10,39,2,2,1,933.01,nonwex8.png
1,10,40,3,1,0,626.86,nonwin6.png
1,10,41,1,2,0,712.7,nonwex9.png
1,10,42,1,2,0,758.61,nonwex7.png
1,10,43,2,2,1,860.49,nonwin2_10.png
1,10,44,2,2,1,770.36,nonwin2_6.png
1,10,45,2,3,0,952.22,nonwex7.png
1,10,46,1,2,0,838.07,nonwin8.png
1,10,47,3,2,0,715.94,nonwex2_1.png
1,10,48,3,2,0,737.84,nonwin2_10.png
1,10,49,1,2,0,711.7,nonwex2_5.png
1,10,50,1,2,0,805.6,nonwex12.png
1,10,51,1,1,1,707.4,nonwin2_2.png
1,10,52,2,2,1,809.26,nonwex3.png
1,10,53,1,1,1,799.21,nonwex2.png
1,10,54,1,1,1,725.03,nonwin2_9.png
1,10,55,2,2,1,738.95,nonwex2.png
1,10,56,3,3,1,760.78,nonwex2_7.png
1,10,57,2,2,1,726.7,nonwex6.png
1,10,58,2,2,1,900.56,nonwin5.png
1,10,59,1,2,0,826.44,nonwin2_5.png
1,10,60,2,3,0,632.27,nonwin2_5.png
1,10,61,3,3,1,637.98,nonwex6.png
1,10,62,1,2,0,716.06,nonwex2_8.png
1,10,63,1,2,0,737.93,nonwin12.png
1,10,64,1,1,1,743.8,nonwex2_4.png
1,10,65,1,2,0,757.68,nonwin11.png
1,10,66,2,1,0,699.52,nonwin2_9.png
1,10,67,3,3,1,777.42,nonwin2_5.png
1,10,68,2,2,1,607.24,nonwin4.png
1,10,69,1,2,0,813.17,nonwin2_4.png
1,10,70,3,2,0,915.03,nonwex3.png
1,10,71,1,2,0,824.89,nonwin9.png
1,10,72,3,3,1,886.78,nonwex7.png
1,10,73,1,2,0,820.66,nonwex4.png
1,10,74,2,3,0,786.53,nonwex2_5.png
1,10,75,1,3,0,784.36,nonwex2_6.png
1,10,76,1,2,0,622.22,nonwex5.png
1,10,77,1,3,0,716.14,nonwin2_12.png
1,10,78,2,2,1,914.03,nonwex2_3.png
1,10,79,2,3,0,671.88,nonwex2_9.png
1,10,80,2,2,1,613.76,nonwin7.png
1,10,81,3,3,1,675.63,nonwex2_2.png
1,10,82,2,3,0,745.46,nonwin2_8.png
1,10,83,2,3,0,671.34,nonwin2_7.png
1,10,84,3,2,0,757.26,nonwex1.png
1,10,85,2,3,0,643.06,nonwex2_8.png
1,10,86,2,2,1,592.96,nonwin2_4.png
1,10,87,2,3,0,566.82,nonwin8.png
1,10,88,1,2,0,684.71,nonwin1.png
1,10,89,2,3,0,610.56,nonwex9.png
1,10,90,2,2,1,664.47,nonwin9.png
1,10,91,2,3,0,726.32,nonwin2_12.png
1,10,92,3,3,1,732.19,nonwin2_8.png
1,10,93,2,2,1,634.1,nonwin1.png
1,10,94,3,3,1,623.97,nonwex8.png
1,10,95,2,2,1,589.8,nonwex4.png
1,10,96,2,2,1,571.64,nonwex2_12.png
1,10,97,1,3,0,577.59,nonwex2_11.png
1,10,98,3,3,1,607.41,nonwin2_3.png
1,10,99,2,2,1,733.28,nonwex12.png
1,10,100,3,2,0,755.21,nonwin10.png
1,10,101,1,2,0,809.07,nonwex11.png
1,10,102,3,3,1,550.92,nonwex2_12.png
1,10,103,2,2,1,580.82,nonwin12.png
1,10,104,2,3,0,530.69,nonwex5.png
1,10,105,2,2,1,672.58,nonwin2_2.png
1,10,106,2,3,0,622.41,nonwex2_6.png
1,10,107,3,2,0,580.29,nonwin2_6.png
1,10,108,3,2,0,618.16,nonwin7.png
1,10,109,3,3,1,719.98,nonwin2_1.png
1,10,110,2,2,1,821.91,nonwex2_4.png
1,10,111,3,3,1,667.76,nonwex2_3.png
1,10,112,3,3,1,825.65,nonwex12.png
1,10,113,3,3,1,895.57,nonwin2_9.png
1,10,114,3,3,1,637.37,nonwin2_2.png
1,10,115,3,3,1,571.29,nonwex5.png
1,10,116,3,3,1,497.16,nonwex2_8.png
1,10,117,3,3,1,551.03,nonwin8.png
1,10,118,3,3,1,636.9,nonwex2_9.png
1,10,119,3,3,1,578.79,nonwex2_5.png
1,10,120,2,3,0,568.66,nonwin11.png
1,10,121,2,3,0,582.5,nonwex2_11.png
1,10,122,3,2,0,828.42,nonwex4.png
1,10,123,3,3,1,794.28,nonwin2_7.png
1,10,124,3,2,0,712.16,nonwin2.png
1,10,125,2,3,0,798.03,nonwex11.png
1,10,126,3,3,1,787.86,nonwin2_4.png
1,10,127,3,3,1,737.77,nonwin9.png
1,10,128,3,3,1,567.64,nonwex11.png
1,10,129,3,3,1,661.5,nonwex2_4.png
1,10,130,3,2,0,739.4,nonwin2_11.png
1,10,131,2,2,1,681.19,nonwex2_10.png
1,10,132,3,3,1,775.1,nonwin1.png
1,10,133,3,2,0,780.99,nonwin2_12.png
1,10,134,3,2,0,818.89,nonwex2.png
1,10,135,2,2,1,752.72,nonwin3.png
1,10,136,3,3,1,710.58,nonwin11.png
1,10,137,3,3,1,716.5,nonwin12.png
1,10,138,3,3,1,570.37,nonwex2_11.png
1,10,139,3,3,1,704.25,nonwin3.png
1,10,140,3,2,0,542.1,nonwin4.png
1,10,141,3,3,1,579.98,nonwex2_10.png
1,10,142,3,2,0,713.87,nonwin5.png
1,10,143,3,3,1,743.74,nonwex2_6.png
1,10,144,3,3,1,797.59,nonwex9.png
2,1,1,1,1,1,775.22,nonwex2_5.png
2,1,2,1,1,1,852.5,nonwex12.png
2,1,3,1,1,1,682.51,nonwex2_2.png
2,1,4,1,1,1,632.55,nonwex2_4.png
2,1,5,1,1,1,598.51,nonwex2_7.png
2,1,6,1,1,1,532.45,nonwin2_11.png
2,1,7,1,1,1,498.53,nonwex2_6.png
2,1,8,2,0,0,0,nonwex12.png
2,1,9,1,2,0,198.44,nonwin7.png
2,1,10,1,1,1,532.48,nonwex2_8.png
2,1,11,3,2,0,570.49,nonwex12.png
2,1,12,1,1,1,664.48,nonwin2_2.png
2,1,13,1,1,1,630.49,nonwin9.png
2,1,14,1,1,1,556.47,nonwex2_3.png
2,1,15,1,1,1,530.44,nonwex8.png
2,1,16,1,1,1,616.46,nonwin5.png
2,1,17,1,2,0,1062.47,nonwin12.png
2,1,18,2,2,1,844.41,nonwex2_5.png
2,1,19,1,1,1,738.45,nonwex11.png
2,1,20,1,2,0,864.43,nonwin2.png
2,1,21,1,1,1,566.4,nonwex2_12.png
2,1,22,1,1,1,852.44,nonwin4.png
2,1,23,1,1,1,706.37,nonwex6.png
2,1,24,1,2,0,691.1,nonwin2_8.png
2,1,25,1,1,1,678.4,nonwin8.png
2,1,26,2,2,1,828.39,nonwin2_11.png
2,1,27,2,3,0,738.37,nonwex6.png
2,1,28,1,2,0,760.36,nonwin1.png
2,1,29,1,1,1,646.38,nonwex2.png
2,1,30,2,2,1,644.31,nonwex2_2.png
2,1,31,2,2,1,794.32,nonwin2.png
2,1,32,1,1,1,736.34,nonwex7.png
2,1,33,1,1,1,702.36,nonwex2_9.png
2,1,34,1,1,1,748.35,nonwex1.png
2,1,35,1,1,1,754.33,nonwin2_7.png
2,1,36,2,2,1,808.31,nonwex2_7.png
2,1,37,1,1,1,686.33,nonwin2_9.png
2,1,38,1,2,0,860.32,nonwex2_10.png
2,1,39,2,2,1,842.3,nonwin4.png
2,1,40,2,2,1,832.25,nonwin5.png
2,1,41,1,1,1,838.3,nonwin11.png
2,1,42,2,3,0,796.26,nonwin9.png
2,1,43,1,1,1,890.28,nonwex3.png
2,1,44,2,2,1,840.27,nonwex11.png
2,1,45,2,3,0,838.26,nonwex2_6.png
2,1,46,1,1,1,908.22,nonwin2_3.png
2,1,47,1,2,0,642.27,nonwex2_11.png
2,1,48,2,2,1,696.22,nonwin2_8.png
2,1,49,2,2,1,734.19,nonwex2_4.png
2,1,50,1,1,1,700.23,nonwin3.png
2,1,51,1,1,1,690.17,nonwex10.png
2,1,52,2,3,0,816.17,nonwex3.png
2,1,53,1,1,1,806.2,nonwin2_10.png
2,1,54,2,1,0,692.22,nonwin11.png
2,1,55,1,1,1,714.22,nonwin2_6.png
2,1,56,1,1,1,752.17,nonwin6.png
2,1,57,1,1,1,654.19,nonwin2_1.png
2,1,58,1,1,1,628.2,nonwin2_5.png
2,1,59,2,2,1,722.17,nonwin2_5.png
2,1,60,2,2,1,960.19,nonwex2_8.png
2,1,61,2,2,1,822.16,nonwin2_3.png
2,1,62,3,3,1,692.13,nonwex3.png
2,1,63,2,2,1,794.13,nonwex8.png
2,1,64,2,2,1,792.11,nonwin7.png
2,1,65,3,2,0,950.13,nonwex2_8.png
2,1,66,2,2,1,772.13,nonwin8.png
2,1,67,3,3,1,762.07,nonwex2_2.png
2,1,68,3,3,1,856.13,nonwex6.png
2,1,69,2,2,1,694.09,nonwin2_2.png
2,1,70,1,3,0,596.12,nonwin2_12.png
2,1,71,1,1,1,842.07,nonwex4.png
2,1,72,2,2,1,864.05,nonwex2_3.png
2,1,73,2,2,1,814.1,nonwex1.png
2,1,74,2,2,1,788.09,nonwex2_11.png
2,1,75,2,2,1,706,nonwin3.png
2,1,76,2,3,0,704.08,nonwex4.png
2,1,77,2,2,1,790.05,nonwex7.png
2,1,78,2,3,0,764.07,nonwin12.png
2,1,79,3,2,0,786.06,nonwin2_3.png
2,1,80,2,2,1,784,nonwex2_10.png
2,1,81,3,3,1,877.99,nonwex2_11.png
2,1,82,3,2,0,884.03,nonwin2_5.png
2,1,83,1,1,1,857.98,nonwex9.png
2,1,84,2,2,1,863.95,nonwin2_9.png
2,1,85,2,2,1,829.98,nonwex10.png
2,1,86,2,1,0,948.02,nonwin2_12.png
2,1,87,2,2,1,858,nonwex2_9.png
2,1,88,1,1,1,847.98,nonwex5.png
2,1,89,1,1,1,733.93,nonwex2_1.png
2,1,90,2,2,1,875.99,nonwin2_6.png
2,1,91,3,2,0,729.96,nonwex4.png
2,1,92,3,3,1,967.92,nonwin2_9.png
2,1,93,1,1,1,749.97,nonwin2_4.png
2,1,94,3,3,1,747.92,nonwin7.png
2,1,95,2,1,0,633.94,nonwin2_1.png
2,1,96,3,3,1,703.92,nonwex2_3.png
2,1,97,2,2,1,749.94,nonwin1.png
2,1,98,3,1,0,1051.88,nonwex2_10.png
2,1,99,2,2,1,689.88,nonwin2_7.png
2,1,100,3,3,1,767.92,nonwin2_2.png
2,1,101,3,3,1,765.92,nonwex2_7.png
2,1,102,3,3,1,675.91,nonwin3.png
2,1,103,2,2,1,721.9,nonwex5.png
2,1,104,3,3,1,839.9,nonwin2_12.png
2,1,105,2,3,0,829.9,nonwex9.png
2,1,106,3,3,1,835.83,nonwin2_6.png
2,1,107,3,3,1,873.88,nonwin11.png
2,1,108,2,2,1,751.85,nonwex2.png
2,1,109,3,3,1,789.87,nonwin12.png
2,1,110,3,2,0,787.82,nonwex5.png
2,1,111,1,1,1,793.85,nonwin10.png
2,1,112,2,2,1,927.8,nonwin2_10.png
2,1,113,2,3,0,877.79,nonwin10.png
2,1,114,3,2,0,827.81,nonwex2_9.png
2,1,115,3,2,0,825.83,nonwin2_1.png
2,1,116,3,3,1,951.78,nonwex7.png
2,1,117,3,3,1,613.76,nonwex9.png
2,1,118,3,3,1,643.81,nonwin10.png
2,1,119,2,3,0,729.79,nonwex2_1.png
2,1,120,3,2,0,815.77,nonwin9.png
2,1,121,2,2,1,877.79,nonwex2_12.png
2,1,122,3,3,1,779.78,nonwin5.png
2,1,123,2,3,0,841.78,nonwin6.png
2,1,124,2,2,1,847.78,nonwin2_4.png
2,1,125,3,3,1,901.74,nonwin2_7.png
2,1,126,3,3,1,875.67,nonwin2_10.png
2,1,127,3,3,1,841.76,nonwin2_11.png
2,1,128,3,2,0,831.71,nonwex2_5.png
2,1,129,3,2,0,829.7,nonwex2_4.png
2,1,130,3,3,1,739.73,nonwin2_4.png
2,1,131,3,3,1,825.73,nonwex8.png
2,1,132,3,3,1,895.66,nonwex1.png
2,1,133,3,3,1,845.65,nonwin2_8.png
2,1,134,3,3,1,867.71,nonwex10.png
2,1,135,3,3,1,873.7,nonwin4.png
2,1,136,3,3,1,807.69,nonwin6.png
2,1,137,3,3,1,957.69,nonwex11.png
2,1,138,3,3,1,1051.68,nonwex2_1.png
2,1,139,3,3,1,577.63,nonwex2.png
2,1,140,3,3,1,519.61,nonwin1.png
2,1,141,3,3,1,381.62,nonwex2_12.png
2,1,142,3,2,0,651.65,nonwin8.png
2,1,143,3,2,0,865.65,nonwex2_6.png
2,1,144,3,3,1,767.63,nonwin2.png
2,2,1,1,1,1,765.42,nonwex2_12.png
2,2,2,1,1,1,459.4,nonwin11.png
2,2,3,1,1,1,561.33,nonwex2_1.png
2,2,4,1,1,1,935.33,nonwex11.png
2,2,5,1,1,1,605.37,nonwin2_2.png
2,2,6,2,2,1,691.38,nonwex11.png
2,2,7,1,1,1,785.35,nonwex7.png
2,2,8,1,1,1,839.37,nonwin4.png
2,2,9,1,1,1,685.31,nonwex2_10.png
2,2,10,1,1,1,683.32,nonwin2_1.png
2,2,11,1,2,0,873.34,nonwex2_5.png
2,2,12,1,1,1,783.33,nonwin2_7.png
2,2,13,1,2,0,757.28,nonwin2_10.png
2,2,14,1,2,0,859.3,nonwex2.png
2,2,15,1,1,1,825.31,nonwex2_9.png
2,2,16,1,1,1,719.29,nonwin6.png
2,2,17,1,1,1,653.26,nonwex2_11.png
2,2,18,1,1,1,595.29,nonwex2_3.png
2,2,19,1,1,1,529.29,nonwin2_5.png
2,2,20,1,1,1,479.21,nonwex2_4.png
2,2,21,1,1,1,837.29,nonwex4.png
2,2,22,2,2,1,779.26,nonwex2_3.png
2,2,23,2,2,1,689.27,nonwin2_10.png
2,2,24,2,2,1,799.24,nonwin2_5.png
2,2,25,1,2,0,829.22,nonwin10.png
2,2,26,1,1,1,859.2,nonwin1.png
2,2,27,1,2,0,705.21,nonwin2.png
2,2,28,1,1,1,687.19,nonwex1.png
2,2,29,1,1,1,893.23,nonwin9.png
2,2,30,1,1,1,755.19,nonwin8.png
2,2,31,1,1,1,665.22,nonwex6.png
2,2,32,1,1,1,631.16,nonwex2_8.png
2,2,33,2,2,1,645.16,nonwex6.png
2,2,34,1,1,1,691.2,nonwex2_6.png
2,2,35,2,2,1,689.2,nonwin2.png
2,2,36,2,2,1,831.19,nonwin9.png
2,2,37,2,1,0,733.18,nonwin4.png
2,2,38,2,2,1,755.18,nonwin11.png
2,2,39,2,2,1,785.16,nonwin6.png
2,2,40,2,3,0,791.12,nonwex2_11.png
2,2,41,1,2,0,757.14,nonwex3.png
2,2,42,1,2,0,787.15,nonwex2_7.png
2,2,43,1,2,0,729.07,nonwex2_2.png
2,2,44,1,1,1,719.14,nonwin2_4.png
2,2,45,2,2,1,669.08,nonwex4.png
2,2,46,3,2,0,763.09,nonwin2_10.png
2,2,47,2,2,1,961.12,nonwex2_4.png
2,2,48,1,2,0,711.07,nonwex5.png
2,2,49,1,1,1,741.07,nonwin12.png
2,2,50,2,2,1,851.1,nonwex2_7.png
2,2,51,1,2,0,761.03,nonwin2_6.png
2,2,52,1,2,0,647.02,nonwin2_11.png
2,2,53,2,3,0,861.06,nonwex2_5.png
2,2,54,1,2,0,827.08,nonwex8.png
2,2,55,1,1,1,649.03,nonwin2_9.png
2,2,56,2,2,1,687.02,nonwex2_2.png
2,2,57,1,2,0,877.02,nonwin2_3.png
2,2,58,2,3,0,771,nonwin2_11.png
2,2,59,2,2,1,833.02,nonwin2_1.png
2,2,60,2,2,1,719.02,nonwin2_4.png
2,2,61,2,2,1,813.04,nonwex2_6.png
2,2,62,2,2,1,859,nonwex2.png
2,2,63,2,2,1,865,nonwin2_6.png
2,2,64,2,2,1,910.99,nonwex2_12.png
2,2,65,2,2,1,877.01,nonwex8.png
2,2,66,2,2,1,930.97,nonwex2_8.png
2,2,67,1,1,1,792.95,nonwin2_12.png
2,2,68,3,2,0,806.96,nonwex2_5.png
2,2,69,3,3,1,852.96,nonwex2_7.png
2,2,70,3,2,0,858.92,nonwin9.png
2,2,71,1,2,0,920.97,nonwin3.png
2,2,72,1,1,1,862.97,nonwex12.png
2,2,73,2,2,1,804.96,nonwin2_2.png
2,2,74,2,2,1,794.92,nonwex7.png
2,2,75,3,2,0,904.91,nonwex11.png
2,2,76,2,2,1,838.92,nonwin1.png
2,2,77,2,2,1,852.93,nonwin8.png
2,2,78,3,2,0,818.9,nonwin2_11.png
2,2,79,3,3,1,792.92,nonwin2_2.png
2,2,80,1,2,0,758.91,nonwin7.png
2,2,81,3,2,0,804.91,nonwex2_4.png
2,2,82,1,2,0,850.89,nonwex9.png
2,2,83,2,3,0,1048.9,nonwex9.png
2,2,84,1,2,0,670.89,nonwin5.png
2,2,85,2,2,1,1020.86,nonwin3.png
2,2,86,2,2,1,706.82,nonwin2_7.png
2,2,87,2,2,1,568.83,nonwin2_9.png
2,2,88,2,2,1,598.82,nonwin2_12.png
2,2,89,3,2,0,516.85,nonwex2_8.png
2,2,90,1,1,1,746.85,nonwex10.png
2,2,91,2,2,1,760.8,nonwex2_1.png
2,2,92,2,3,0,934.81,nonwin10.png
2,2,93,2,2,1,732.81,nonwex1.png
2,2,94,2,2,1,794.83,nonwin12.png
2,2,95,2,2,1,720.79,nonwex12.png
2,2,96,1,2,0,790.81,nonwin2_8.png
2,2,97,2,2,1,660.77,nonwin5.png
2,2,98,3,2,0,626.79,nonwin2_9.png
2,2,99,3,2,0,800.79,nonwex8.png
2,2,100,2,2,1,830.79,nonwex10.png
2,2,101,2,2,1,764.75,nonwin2_3.png
2,2,102,2,2,1,1018.78,nonwex3.png
2,2,103,3,2,0,672.71,nonwin4.png
2,2,104,3,3,1,654.78,nonwex1.png
2,2,105,3,2,0,820.76,nonwex2_2.png
2,2,106,3,2,0,866.68,nonwin8.png
2,2,107,3,2,0,832.73,nonwin2_4.png
2,2,108,2,3,0,758.68,nonwin2_8.png
2,2,109,2,2,1,580.72,nonwex5.png
2,2,110,3,2,0,650.69,nonwin3.png
2,2,111,3,2,0,800.72,nonwex2.png
2,2,112,3,3,1,718.71,nonwin6.png
2,2,113,3,2,0,724.7,nonwex2_6.png
2,2,114,3,3,1,706.7,nonwin2.png
2,2,115,3,3,1,832.67,nonwex2_1.png
2,2,116,3,2,0,838.65,nonwin2_5.png
2,2,117,3,3,1,788.65,nonwex7.png
2,2,118,3,3,1,762.68,nonwex9.png
2,2,119,3,2,0,816.67,nonwin2_1.png
2,2,120,2,3,0,758.66,nonwin7.png
2,2,121,3,2,0,772.65,nonwin2_8.png
2,2,122,3,3,1,754.59,nonwex3.png
2,2,123,2,2,1,792.59,nonwex2_10.png
2,2,124,3,2,0,806.62,nonwex2_12.png
2,2,125,3,3,1,836.63,nonwex12.png
2,2,126,3,2,0,730.59,nonwex4.png
2,2,127,3,2,0,680.59,nonwin2_3.png
2,2,128,3,2,0,862.61,nonwex10.png
2,2,129,2,2,1,836.54,nonwex2_9.png
2,2,130,3,3,1,850.57,nonwex5.png
2,2,131,3,2,0,856.59,nonwin5.png
2,2,132,3,2,0,1022.51,nonwex2_9.png
2,2,133,3,2,0,804.54,nonwin12.png
2,2,134,3,3,1,730.55,nonwin11.png
2,2,135,3,2,0,696.51,nonwin2_7.png
2,2,136,3,2,0,654.51,nonwex2_3.png
2,2,137,3,2,0,580.54,nonwex2_10.png
2,2,138,3,2,0,586.52,nonwin2_6.png
2,2,139,3,2,0,560.54,nonwin7.png
2,2,140,3,2,0,742.53,nonwex6.png
2,2,141,3,2,0,1052.53,nonwin1.png
2,2,142,3,3,1,626.47,nonwin10.png
2,2,143,3,3,1,1024.52,nonwex2_11.png
2,2,144,3,3,1,526.49,nonwin2_12.png
2,3,1,1,1,1,452.35,nonwin10.png
2,3,2,1,1,1,322.36,nonwin12.png
2,3,3,1,1,1,320.39,nonwin2_7.png
2,3,4,1,1,1,422.39,nonwin5.png
2,3,5,2,2,1,588.3,nonwin5.png
2,3,6,1,1,1,810.32,nonwin1.png
2,3,7,1,1,1,632.34,nonwex2_6.png
2,3,8,1,1,1,590.37,nonwex2.png
2,3,9,1,1,1,588.33,nonwin3.png
2,3,10,2,2,1,722.36,nonwin2_7.png
2,3,11,1,2,0,800.35,nonwex1.png
2,3,12,1,1,1,718.29,nonwin2_6.png
2,3,13,1,1,1,644.34,nonwex7.png
2,3,14,1,1,1,562.32,nonwex12.png
2,3,15,1,1,1,552.3,nonwex2_9.png
2,3,16,1,1,1,662.32,nonwex3.png
2,3,17,1,1,1,540.31,nonwex2_2.png
2,3,18,1,2,0,634.31,nonwex2_11.png
2,3,19,1,2,0,712.3,nonwin2_12.png
2,3,20,1,2,0,734.3,nonwin2_8.png
2,3,21,1,1,1,652.29,nonwin2_9.png
2,3,22,1,1,1,650.27,nonwex2_8.png
2,3,23,2,2,1,992.29,nonwin2_12.png
2,3,24,1,2,0,630.22,nonwin2.png
2,3,25,2,2,1,684.22,nonwex2_11.png
2,3,26,1,1,1,690.26,nonwin2_1.png
2,3,27,2,2,1,760.22,nonwin1.png
2,3,28,1,1,1,774.25,nonwex2_4.png
2,3,29,1,1,1,732.24,nonwex2_5.png
2,3,30,2,2,1,890.23,nonwin12.png
2,3,31,2,3,0,800.16,nonwin2_8.png
2,3,32,1,2,0,630.22,nonwex6.png
2,3,33,1,1,1,724.21,nonwex2_3.png
2,3,34,2,2,1,554.13,nonwex2_6.png
2,3,35,2,2,1,760.2,nonwex6.png
2,3,36,1,1,1,758.14,nonwin2_4.png
2,3,37,2,2,1,660.15,nonwex2_9.png
2,3,38,2,2,1,746.16,nonwin10.png
2,3,39,1,1,1,728.13,nonwex5.png
2,3,40,3,2,0,734.11,nonwin10.png
2,3,41,1,1,1,988.14,nonwin9.png
2,3,42,2,2,1,649.52,nonwin2_1.png
2,3,43,1,1,1,840.1,nonwin2_10.png
2,3,44,2,2,1,694.08,nonwin9.png
2,3,45,1,1,1,644.14,nonwin2_2.png
2,3,46,2,2,1,666.13,nonwex5.png
2,3,47,2,3,0,744.1,nonwex1.png
2,3,48,1,2,0,702.06,nonwin6.png
2,3,49,1,1,1,892.08,nonwex2_12.png
2,3,50,3,2,0,730.06,nonwex6.png
2,3,51,2,2,1,760.1,nonwin6.png
2,3,52,1,1,1,614.06,nonwin7.png
2,3,53,1,1,1,804.03,nonwin11.png
2,3,54,3,3,1,746.07,nonwex1.png
2,3,55,1,2,0,720.08,nonwex9.png
2,3,56,1,2,0,806.07,nonwin2_11.png
2,3,57,2,2,1,716.04,nonwin2_4.png
2,3,58,2,2,1,618.06,nonwin2_2.png
2,3,59,2,2,1,631.99,nonwin7.png
2,3,60,2,2,1,998.05,nonwin3.png
2,3,61,1,2,0,891.99,nonwex2_10.png
2,3,62,2,2,1,753.98,nonwin2_11.png
2,3,63,1,1,1,695.94,nonwin4.png
2,3,64,1,1,1,733.98,nonwin8.png
2,3,65,2,2,1,716.01,nonwex3.png
2,3,66,2,2,1,746.01,nonwin2_6.png
2,3,67,3,2,0,895.98,nonwin2_12.png
2,3,68,3,2,0,901.96,nonwex3.png
2,3,69,1,2,0,843.98,nonwex8.png
2,3,70,1,2,0,873.96,nonwex2_7.png
2,3,71,1,2,0,847.98,nonwex10.png
2,3,72,2,3,0,877.92,nonwin4.png
2,3,73,3,2,0,739.96,nonwin12.png
2,3,74,2,2,1,705.95,nonwin2.png
2,3,75,1,1,1,927.88,nonwin2_3.png
2,3,76,1,2,0,829.92,nonwex11.png
2,3,77,3,2,0,723.92,nonwin2_1.png
2,3,78,1,3,0,793.88,nonwin2_5.png
2,3,79,2,2,1,679.92,nonwex2_5.png
2,3,80,3,2,0,709.92,nonwin2.png
2,3,81,2,2,1,683.92,nonwex8.png
2,3,82,2,2,1,609.85,nonwex2_4.png
2,3,83,2,2,1,815.85,nonwex2_12.png
2,3,84,2,2,1,797.89,nonwin2_9.png
2,3,85,3,2,0,763.85,nonwin2_8.png
2,3,86,2,2,1,673.82,nonwin11.png
2,3,87,3,2,0,759.88,nonwin2_4.png
2,3,88,3,2,0,845.82,nonwin2_7.png
2,3,89,3,2,0,539.86,nonwin5.png
2,3,90,2,2,1,753.85,nonwin2_5.png
2,3,91,2,2,1,775.85,nonwex2.png
2,3,92,3,3,1,701.82,nonwin2_6.png
2,3,93,2,3,0,779.81,nonwin2_10.png
2,3,94,2,3,0,753.83,nonwex2_10.png
2,3,95,2,2,1,855.83,nonwex2_2.png
2,3,96,3,3,1,693.82,nonwin3.png
2,3,97,3,2,0,635.8,nonwin2_11.png
2,3,98,1,2,0,737.76,nonwex4.png
2,3,99,3,3,1,711.8,nonwin2_10.png
2,3,100,3,2,0,613.78,nonwin7.png
2,3,101,2,3,0,571.79,nonwex2_8.png
2,3,102,3,2,0,905.76,nonwin6.png
2,3,103,2,3,0,759.78,nonwex11.png
2,3,104,2,2,1,637.75,nonwex2_7.png
2,3,105,2,2,1,691.7,nonwex12.png
2,3,106,2,2,1,809.75,nonwex2_3.png
2,3,107,3,2,0,687.75,nonwex2_4.png
2,3,108,2,3,0,813.68,nonwex9.png
2,3,109,3,3,1,835.67,nonwin9.png
2,3,110,2,2,1,857.7,nonwex7.png
2,3,111,3,3,1,679.71,nonwex2_10.png
2,3,112,3,3,1,797.72,nonwex8.png
2,3,113,3,3,1,811.72,nonwex12.png
2,3,114,3,3,1,729.72,nonwex2_8.png
2,3,115,2,3,0,591.63,nonwex4.png
2,3,116,3,3,1,653.68,nonwin1.png
2,3,117,3,3,1,699.68,nonwin4.png
2,3,118,2,3,0,817.68,nonwin2_3.png
2,3,119,3,2,0,663.67,nonwex4.png
2,3,120,3,3,1,789.62,nonwex5.png
2,3,121,3,2,0,867.66,nonwex2_9.png
2,3,122,1,2,0,881.58,nonwex2_1.png
2,3,123,2,3,0,711.63,nonwex10.png
2,3,124,3,2,0,781.64,nonwin2_9.png
2,3,125,3,3,1,763.61,nonwin2_2.png
2,3,126,2,3,0,793.63,nonwin8.png
2,3,127,3,2,0,671.59,nonwex2_12.png
2,3,128,3,3,1,701.57,nonwex2.png
2,3,129,3,3,1,691.61,nonwex2_7.png
2,3,130,3,2,0,585.55,nonwin2_3.png
2,3,131,3,3,1,671.56,nonwex2_3.png
2,3,132,2,3,0,725.56,nonwex2_1.png
2,3,133,3,3,1,739.59,nonwex10.png
2,3,134,3,2,0,665.58,nonwex2_6.png
2,3,135,3,2,0,847.54,nonwex2_11.png
2,3,136,3,3,1,781.55,nonwex11.png
2,3,137,3,3,1,675.5,nonwex2_5.png
2,3,138,3,2,0,649.55,nonwex2_1.png
2,3,139,3,3,1,671.53,nonwin11.png
2,3,140,3,3,1,749.48,nonwex2_2.png
2,3,141,3,3,1,731.51,nonwin8.png
2,3,142,3,3,1,777.51,nonwin2_5.png
2,3,143,3,3,1,719.47,nonwex7.png
2,3,144,3,3,1,797.48,nonwex9.png
2,4,1,1,1,1,721.25,nonwex11.png
2,4,2,1,1,1,375.21,nonwin2_8.png
2,4,3,1,1,1,229.25,nonwex4.png
2,4,4,1,1,1,371.23,nonwin2_7.png
2,4,5,1,1,1,401.25,nonwin4.png
2,4,6,1,1,1,343.25,nonwin2_2.png
2,4,7,1,1,1,341.24,nonwin2_3.png
2,4,8,2,2,1,515.21,nonwex4.png
2,4,9,2,2,1,609.23,nonwin2_8.png
2,4,10,1,1,1,591.22,nonwex2_7.png
2,4,11,1,1,1,597.16,nonwex7.png
2,4,12,1,1,1,627.17,nonwin2_10.png
2,4,13,1,1,1,633.21,nonwex2_6.png
2,4,14,1,1,1,599.18,nonwex5.png
2,4,15,1,1,1,581.15,nonwin2_1.png
2,4,16,1,1,1,619.19,nonwex2_12.png
2,4,17,1,1,1,625.17,nonwin8.png
2,4,18,1,1,1,911.12,nonwex2_5.png
2,4,19,2,2,1,581.16,nonwex2_5.png
2,4,20,1,1,1,915.11,nonwin7.png
2,4,21,1,1,1,697.11,nonwex1.png
2,4,22,1,2,0,735.15,nonwin2_11.png
2,4,23,1,1,1,741.15,nonwin11.png
2,4,24,2,2,1,779.12,nonwin4.png
2,4,25,1,1,1,673.13,nonwin2.png
2,4,26,2,2,1,711.09,nonwin8.png
2,4,27,3,2,0,669.11,nonwin8.png
2,4,28,1,2,0,803.1,nonwin5.png
2,4,29,1,2,0,809.08,nonwex2_9.png
2,4,30,2,2,1,759.06,nonwin2_10.png
2,4,31,1,1,1,893.1,nonwex2_2.png
2,4,32,2,2,1,819.07,nonwex2_12.png
2,4,33,2,2,1,801.09,nonwin2_2.png
2,4,34,1,1,1,839.08,nonwin10.png
2,4,35,1,2,0,765.02,nonwex2_1.png
2,4,36,2,2,1,923.04,nonwin2_1.png
2,4,37,1,1,1,793.03,nonwex8.png
2,4,38,1,1,1,759.02,nonwex6.png
2,4,39,1,2,0,749.04,nonwex2_10.png
2,4,40,1,1,1,786.99,nonwex12.png
2,4,41,1,1,1,681,nonwin2_9.png
2,4,42,1,2,0,791.02,nonwex2_3.png
2,4,43,1,1,1,828.99,nonwin2_5.png
2,4,44,1,2,0,771.01,nonwex2_11.png
2,4,45,1,2,0,769.01,nonwin2_12.png
2,4,46,1,2,0,815,nonwex9.png
2,4,47,2,3,0,917,nonwex7.png
2,4,48,1,2,0,778.93,nonwin12.png
2,4,49,1,2,0,736.98,nonwex2.png
2,4,50,2,2,1,830.98,nonwex2_2.png
2,4,51,2,2,1,804.96,nonwin2_9.png
2,4,52,2,2,1,802.97,nonwex1.png
2,4,53,2,2,1,784.93,nonwin2_12.png
2,4,54,1,2,0,814.95,nonwin3.png
2,4,55,2,2,1,772.88,nonwex2_1.png
2,4,56,1,1,1,978.92,nonwin6.png
2,4,57,3,2,0,736.93,nonwex2_5.png
2,4,58,2,2,1,782.92,nonwex2_9.png
2,4,59,3,2,0,860.93,nonwex2_12.png
2,4,60,3,2,0,826.85,nonwex1.png
2,4,61,2,2,1,816.87,nonwin11.png
2,4,62,2,2,1,798.87,nonwin12.png
2,4,63,3,3,1,820.86,nonwex2_9.png
2,4,64,2,3,0,842.89,nonwex11.png
2,4,65,1,2,0,792.82,nonwin2_4.png
2,4,66,1,2,0,806.88,nonwin2_6.png
2,4,67,2,2,1,764.87,nonwin2_7.png
2,4,68,2,2,1,770.85,nonwin7.png
2,4,69,3,3,1,752.84,nonwin2_9.png
2,4,70,2,2,1,774.82,nonwin2_6.png
2,4,71,2,3,0,756.84,nonwex2_7.png
2,4,72,1,2,0,770.8,nonwex3.png
2,4,73,1,3,0,744.83,nonwin1.png
2,4,74,2,3,0,838.83,nonwex8.png
2,4,75,3,3,1,828.74,nonwin2_12.png
2,4,76,2,2,1,850.82,nonwex2_6.png
2,4,77,2,3,0,848.75,nonwin2.png
2,4,78,3,3,1,678.8,nonwex4.png
2,4,79,1,3,0,676.79,nonwex2_8.png
2,4,80,2,2,1,882.79,nonwex2_11.png
2,4,81,2,3,0,992.79,nonwex6.png
2,4,82,2,2,1,766.75,nonwin6.png
2,4,83,1,1,1,988.75,nonwex2_4.png
2,4,84,2,2,1,778.76,nonwin2_5.png
2,4,85,2,3,0,768.75,nonwex2_10.png
2,4,86,3,3,1,638.71,nonwex11.png
2,4,87,2,3,0,820.75,nonwex12.png
2,4,88,3,3,1,778.69,nonwex6.png
2,4,89,2,3,0,824.7,nonwex9.png
2,4,90,1,2,0,718.67,nonwin9.png
2,4,91,1,2,0,812.73,nonwex10.png
2,4,92,3,3,1,770.71,nonwex8.png
2,4,93,2,3,0,728.71,nonwex2_3.png
2,4,94,2,2,1,790.67,nonwin9.png
2,4,95,2,3,0,756.64,nonwin10.png
2,4,96,2,3,0,874.65,nonwin5.png
2,4,97,3,2,0,896.62,nonwex2_6.png
2,4,98,3,2,0,950.68,nonwex9.png
2,4,99,3,3,1,940.65,nonwin2.png
2,4,100,2,3,0,954.63,nonwin2_3.png
2,4,101,2,3,0,768.62,nonwin3.png
2,4,102,2,3,0,742.65,nonwin1.png
2,4,103,3,3,1,788.65,nonwex12.png
2,4,104,3,3,1,818.58,nonwin11.png
2,4,105,2,3,0,1088.57,nonwex10.png
2,4,106,3,2,0,638.63,nonwin2_8.png
2,4,107,3,3,1,676.56,nonwin9.png
2,4,108,3,2,0,834.59,nonwin3.png
2,4,109,3,3,1,792.61,nonwex2_3.png
2,4,110,3,3,1,798.57,nonwin2_3.png
2,4,111,3,3,1,924.55,nonwin1.png
2,4,112,3,3,1,890.58,nonwin2_6.png
2,4,113,3,3,1,952.55,nonwex7.png
2,4,114,3,3,1,910.57,nonwin2_5.png
2,4,115,2,3,0,780.55,nonwin2_11.png
2,4,116,3,2,0,842.56,nonwex2_1.png
2,4,117,2,3,0,776.56,nonwex2_4.png
2,4,118,3,3,1,766.5,nonwin6.png
2,4,119,2,3,0,804.55,nonwex5.png
2,4,120,3,3,1,842.49,nonwin2_10.png
2,4,121,3,3,1,808.51,nonwex10.png
2,4,122,3,3,1,862.49,nonwin5.png
2,4,123,3,3,1,852.44,nonwin2_11.png
2,4,124,2,3,0,866.48,nonwex2_8.png
2,4,125,3,3,1,840.5,nonwin7.png
2,4,126,3,3,1,838.46,nonwin2_7.png
2,4,127,3,3,1,780.45,nonwin2_2.png
2,4,128,3,3,1,746.43,nonwex2_11.png
2,4,129,3,3,1,680.39,nonwex2_10.png
2,4,130,2,3,0,766.48,nonwin2_4.png
2,4,131,3,3,1,772.47,nonwex5.png
2,4,132,3,3,1,714.44,nonwin10.png
2,4,133,2,3,0,736.41,nonwex3.png
2,4,134,2,3,0,686.45,nonwex2.png
2,4,135,3,3,1,652.43,nonwex2_8.png
2,4,136,3,3,1,754.44,nonwex2_2.png
2,4,137,3,3,1,736.39,nonwex2_7.png
2,4,138,3,3,1,934.41,nonwin12.png
2,4,139,3,3,1,948.42,nonwin2_1.png
2,4,140,3,3,1,762.37,nonwin2_4.png
2,4,141,3,3,1,824.41,nonwin4.png
2,4,142,3,3,1,718.4,nonwex2_4.png
2,4,143,3,3,1,700.4,nonwex2.png
2,4,144,3,3,1,682.39,nonwex3.png
2,5,1,1,1,1,558.47,nonwin12.png
2,5,2,1,1,1,428.48,nonwex7.png
2,5,3,1,1,1,306.46,nonwex2.png
2,5,4,2,2,1,544.41,nonwex2.png
2,5,5,1,2,0,638.45,nonwex3.png
2,5,6,1,1,1,556.41,nonwin2_9.png
2,5,7,1,1,1,818.46,nonwin2_1.png
2,5,8,1,1,1,744.43,nonwex4.png
2,5,9,1,1,1,742.44,nonwin11.png
2,5,10,1,1,1,588.44,nonwin2_6.png
2,5,11,2,2,1,762.43,nonwex7.png
2,5,12,3,2,0,760.4,nonwex2.png
2,5,13,1,1,1,686.38,nonwex5.png
2,5,14,1,1,1,652.42,nonwex2_5.png
2,5,15,1,1,1,602.41,nonwex2_12.png
2,5,16,1,1,1,640.41,nonwex2_1.png
2,5,17,1,1,1,670.34,nonwex6.png
2,5,18,1,1,1,612.33,nonwin2_3.png
2,5,19,1,1,1,610.35,nonwex2_2.png
2,5,20,3,2,0,800.38,nonwex7.png
2,5,21,1,1,1,734.31,nonwin10.png
2,5,22,1,1,1,788.33,nonwin2_10.png
2,5,23,1,1,1,834.34,nonwex8.png
2,5,24,1,1,1,816.31,nonwin4.png
2,5,25,1,1,1,750.3,nonwex2_9.png
2,5,26,1,1,1,724.33,nonwin2_5.png
2,5,27,1,2,0,818.34,nonwin2_12.png
2,5,28,1,2,0,848.28,nonwex2_7.png
2,5,29,1,1,1,958.3,nonwin6.png
2,5,30,2,2,1,756.32,nonwex3.png
2,5,31,1,1,1,738.23,nonwin2.png
2,5,32,2,2,1,848.25,nonwex2_9.png
2,5,33,1,2,0,862.23,nonwin2_4.png
2,5,34,2,2,1,892.3,nonwex2_2.png
2,5,35,2,2,1,778.28,nonwex2_12.png
2,5,36,2,1,0,752.24,nonwin2_9.png
2,5,37,2,1,0,814.27,nonwex8.png
2,5,38,1,1,1,756.27,nonwin9.png
2,5,39,1,1,1,842.2,nonwex2_3.png
2,5,40,1,2,0,792.2,nonwex9.png
2,5,41,2,2,1,782.2,nonwex5.png
2,5,42,1,1,1,708.24,nonwex10.png
2,5,43,2,2,1,698.24,nonwex2_5.png
2,5,44,2,2,1,712.23,nonwin2_5.png
2,5,45,1,2,0,862.21,nonwin2_11.png
2,5,46,2,2,1,796.22,nonwex6.png
2,5,47,2,2,1,706.18,nonwex2_3.png
2,5,48,3,2,0,728.15,nonwex2_9.png
2,5,49,1,2,0,878.18,nonwin2_2.png
2,5,50,1,1,1,948.2,nonwex1.png
2,5,51,3,2,0,858.17,nonwex2_5.png
2,5,52,2,2,1,752.17,nonwin2_11.png
2,5,53,1,2,0,822.18,nonwex2_6.png
2,5,54,1,1,1,988.15,nonwex2_11.png
2,5,55,1,2,0,714.16,nonwin1.png
2,5,56,2,2,1,784.1,nonwin2_2.png
2,5,57,2,2,1,718.13,nonwin2_10.png
2,5,58,2,3,0,740.14,nonwex2_11.png
2,5,59,3,3,1,778.08,nonwex3.png
2,5,60,2,3,0,800.06,nonwex1.png
2,5,61,1,2,0,774.1,nonwin3.png
2,5,62,1,1,1,796.12,nonwin2_8.png
2,5,63,2,2,1,778.06,nonwin4.png
2,5,64,1,1,1,920.09,nonwin5.png
2,5,65,1,2,0,790.09,nonwex2_8.png
2,5,66,1,1,1,860.1,nonwin2_7.png
2,5,67,2,2,1,810.02,nonwin2_4.png
2,5,68,3,3,1,808.08,nonwex2_11.png
2,5,69,3,2,0,838.08,nonwex2_2.png
2,5,70,2,2,1,836.07,nonwin2_12.png
2,5,71,1,2,0,898.05,nonwex2_4.png
2,5,72,2,2,1,895.96,nonwex9.png
2,5,73,2,3,0,894.05,nonwin1.png
2,5,74,1,2,0,876.04,nonwin7.png
2,5,75,2,2,1,866.01,nonwex2_6.png
2,5,76,2,1,0,968.04,nonwin11.png
2,5,77,3,3,1,950,nonwin2_11.png
2,5,78,2,2,1,795.97,nonwin7.png
2,5,79,3,3,1,858.01,nonwex1.png
2,5,80,1,2,0,784,nonwex11.png
2,5,81,1,1,1,781.98,nonwex12.png
2,5,82,2,3,0,884,nonwex11.png
2,5,83,1,2,0,673.96,nonwex2_10.png
2,5,84,3,2,0,695.98,nonwin2_9.png
2,5,85,1,2,0,741.9,nonwin8.png
2,5,86,2,2,1,779.97,nonwex10.png
2,5,87,2,2,1,865.97,nonwin2_8.png
2,5,88,2,2,1,799.96,nonwin9.png
2,5,89,3,2,0,869.93,nonwin2_2.png
2,5,90,2,3,0,763.9,nonwin8.png
2,5,91,2,3,0,777.92,nonwex2_4.png
2,5,92,2,2,1,751.87,nonwin2_6.png
2,5,93,3,2,0,765.89,nonwin7.png
2,5,94,2,2,1,755.92,nonwin5.png
2,5,95,3,2,0,609.88,nonwex2_6.png
2,5,96,2,2,1,695.85,nonwex4.png
2,5,97,2,3,0,677.87,nonwin2_7.png
2,5,98,2,2,1,795.89,nonwin2_1.png
2,5,99,2,2,1,633.88,nonwex2_10.png
2,5,100,3,2,0,599.82,nonwin2_10.png
2,5,101,3,2,0,757.82,nonwin8.png
2,5,102,3,3,1,747.87,nonwex8.png
2,5,103,2,3,0,953.83,nonwin2.png
2,5,104,2,3,0,583.85,nonwin3.png
2,5,105,2,3,0,725.79,nonwex12.png
2,5,106,3,3,1,683.82,nonwex11.png
2,5,107,2,2,1,769.82,nonwin12.png
2,5,108,3,3,1,799.83,nonwex10.png
2,5,109,3,3,1,717.78,nonwin3.png
2,5,110,3,3,1,627.8,nonwex9.png
2,5,111,3,3,1,673.75,nonwin11.png
2,5,112,3,3,1,679.75,nonwex4.png
2,5,113,2,3,0,685.76,nonwex2_7.png
2,5,114,3,2,0,803.78,nonwex6.png
2,5,115,2,2,1,849.79,nonwin6.png
2,5,116,2,2,1,871.75,nonwex2_8.png
2,5,117,3,3,1,773.78,nonwex2_10.png
2,5,118,3,2,0,851.77,nonwin2.png
2,5,119,3,3,1,841.76,nonwex2_7.png
2,5,120,3,3,1,767.77,nonwin2_7.png
2,5,121,2,2,1,845.75,nonwin10.png
2,5,122,3,3,1,763.72,nonwin2_8.png
2,5,123,3,3,1,761.74,nonwex2_12.png
2,5,124,3,3,1,711.73,nonwin6.png
2,5,125,3,3,1,637.72,nonwex2_8.png
2,5,126,3,2,0,691.71,nonwin4.png
2,5,127,3,2,0,729.7,nonwex5.png
2,5,128,2,3,0,727.7,nonwex2_1.png
2,5,129,2,3,0,701.68,nonwin2_3.png
2,5,130,3,3,1,667.69,nonwin2_1.png
2,5,131,3,2,0,721.65,nonwin2_5.png
2,5,132,3,3,1,687.64,nonwin12.png
2,5,133,3,3,1,669.67,nonwin5.png
2,5,134,3,3,1,651.67,nonwin2_12.png
2,5,135,3,3,1,641.66,nonwex2_3.png
2,5,136,3,3,1,799.62,nonwex12.png
2,5,137,3,3,1,773.65,nonwex2_1.png
2,5,138,3,3,1,851.64,nonwin10.png
2,5,139,3,3,1,897.6,nonwex2_4.png
2,5,140,3,3,1,927.63,nonwin1.png
2,5,141,3,3,1,917.63,nonwin9.png
2,5,142,3,3,1,827.62,nonwin2_3.png
2,5,143,3,3,1,833.55,nonwin2_6.png
2,5,144,3,3,1,775.59,nonwin2_4.png
2,6,1,1,1,1,475.58,nonwex2_2.png
2,6,2,1,1,1,321.63,nonwex2_7.png
2,6,3,1,1,1,399.63,nonwin2_10.png
2,6,4,1,1,1,405.59,nonwin6.png
2,6,5,1,1,1,419.58,nonwin2_9.png
2,6,6,1,1,1,497.59,nonwex2_12.png
2,6,7,1,1,1,407.61,nonwex3.png
2,6,8,2,2,1,597.57,nonwin6.png
2,6,9,1,1,1,635.6,nonwin2_4.png
2,6,10,1,1,1,537.55,nonwin12.png
2,6,11,1,1,1,511.53,nonwin2_12.png
2,6,12,1,1,1,485.57,nonwin2.png
2,6,13,1,1,1,579.56,nonwin2_7.png
2,6,14,1,1,1,569.54,nonwex8.png
2,6,15,1,1,1,615.54,nonwin1.png
2,6,16,1,1,1,797.56,nonwex6.png
2,6,17,1,1,1,731.55,nonwin3.png
2,6,18,1,1,1,657.54,nonwex11.png
2,6,19,1,1,1,655.52,nonwex2_8.png
2,6,20,1,1,1,605.53,nonwex2.png
2,6,21,1,1,1,595.51,nonwex12.png
2,6,22,1,1,1,561.47,nonwex2_5.png
2,6,23,1,1,1,719.48,nonwin2_2.png
2,6,24,1,2,0,733.51,nonwex1.png
2,6,25,2,2,1,779.46,nonwex2_12.png
2,6,26,2,2,1,857.43,nonwin2.png
2,6,27,2,2,1,855.47,nonwex2_5.png
2,6,28,1,2,0,821.48,nonwex9.png
2,6,29,2,2,1,779.47,nonwin12.png
2,6,30,2,2,1,785.47,nonwin2_2.png
2,6,31,1,2,0,703.41,nonwin7.png
2,6,32,3,3,1,837.46,nonwin2.png
2,6,33,1,1,1,827.41,nonwex2_3.png
2,6,34,1,1,1,737.45,nonwex2_9.png
2,6,35,1,2,0,711.43,nonwin2_8.png
2,6,36,1,2,0,741.37,nonwex2_10.png
2,6,37,1,1,1,683.42,nonwex2_6.png
2,6,38,2,2,1,729.42,nonwex2_9.png
2,6,39,1,1,1,855.42,nonwin10.png
2,6,40,1,1,1,853.37,nonwex2_11.png
2,6,41,2,2,1,755.4,nonwex2.png
2,6,42,1,1,1,833.34,nonwin5.png
2,6,43,2,2,1,943.35,nonwin7.png
2,6,44,2,2,1,853.38,nonwin2_7.png
2,6,45,2,2,1,803.35,nonwex2_3.png
2,6,46,2,2,1,721.37,nonwin2_8.png
2,6,47,1,2,0,735.32,nonwin11.png
2,6,48,1,1,1,805.36,nonwin2_6.png
2,6,49,2,2,1,763.31,nonwex2_11.png
2,6,50,2,2,1,713.28,nonwin2_4.png
2,6,51,1,2,0,735.33,nonwin2_11.png
2,6,52,2,3,0,813.34,nonwex3.png
2,6,53,2,2,1,803.29,nonwex6.png
2,6,54,3,3,1,761.28,nonwin6.png
2,6,55,2,2,1,751.32,nonwex9.png
2,6,56,1,2,0,845.27,nonwex2_1.png
2,6,57,1,2,0,875.3,nonwin4.png
2,6,58,2,2,1,969.25,nonwex2_7.png
2,6,59,2,2,1,799.29,nonwex8.png
2,6,60,3,3,1,661.28,nonwex8.png
2,6,61,1,1,1,811.28,nonwin8.png
2,6,62,1,2,0,769.27,nonwex5.png
2,6,63,2,2,1,823.25,nonwin11.png
2,6,64,2,2,1,813.25,nonwex2_2.png
2,6,65,1,2,0,811.25,nonwin2_3.png
2,6,66,2,2,1,753.22,nonwex2_10.png
2,6,67,2,2,1,775.24,nonwex2_6.png
2,6,68,1,2,0,861.17,nonwin2_1.png
2,6,69,1,2,0,795.21,nonwex7.png
2,6,70,3,2,0,865.22,nonwex6.png
2,6,71,2,3,0,807.2,nonwin1.png
2,6,72,2,3,0,781.21,nonwin4.png
2,6,73,1,2,0,771.2,nonwex10.png
2,6,74,2,2,1,777.19,nonwin2_1.png
2,6,75,2,3,0,719.13,nonwin2_3.png
2,6,76,1,2,0,773.14,nonwex4.png
2,6,77,2,3,0,691.18,nonwex10.png
2,6,78,3,3,1,681.12,nonwex2_10.png
2,6,79,2,3,0,783.12,nonwex5.png
2,6,80,3,3,1,829.16,nonwex2_6.png
2,6,81,2,3,0,915.15,nonwin5.png
2,6,82,3,3,1,817.08,nonwex9.png
2,6,83,2,2,1,815.08,nonwex12.png
2,6,84,3,3,1,781.13,nonwin12.png
2,6,85,3,3,1,747.11,nonwex5.png
2,6,86,3,3,1,745.12,nonwex2_11.png
2,6,87,3,3,1,783.12,nonwex2_9.png
2,6,88,2,3,0,781.11,nonwin3.png
2,6,89,3,3,1,803.1,nonwin7.png
2,6,90,2,3,0,745.06,nonwin2_11.png
2,6,91,2,2,1,815.06,nonwin2_9.png
2,6,92,3,3,1,797.06,nonwin2_3.png
2,6,93,2,3,0,795.08,nonwex4.png
2,6,94,1,2,0,801.03,nonwex2_4.png
2,6,95,2,3,0,919.07,nonwin2_10.png
2,6,96,2,3,0,837.06,nonwex1.png
2,6,97,2,3,0,875.05,nonwex7.png
2,6,98,3,3,1,793,nonwex4.png
2,6,99,2,3,0,807.01,nonwex2_1.png
2,6,100,2,3,0,749,nonwin2_12.png
2,6,101,3,3,1,770.99,nonwin3.png
2,6,102,3,3,1,793.02,nonwex2_7.png
2,6,103,1,2,0,967,nonwin2_5.png
2,6,104,3,3,1,708.96,nonwin2_8.png
2,6,105,3,3,1,794.99,nonwin2_10.png
2,6,106,3,3,1,704.93,nonwin2_11.png
2,6,107,3,2,0,750.99,nonwex2.png
2,6,108,3,3,1,812.96,nonwex2_3.png
2,6,109,2,3,0,794.94,nonwex2_4.png
2,6,110,2,2,1,888.97,nonwin8.png
2,6,111,2,3,0,902.9,nonwin10.png
2,6,112,1,3,0,916.95,nonwin9.png
2,6,113,2,2,1,954.89,nonwin2_6.png
2,6,114,2,3,0,664.94,nonwex2_8.png
2,6,115,3,3,1,718.86,nonwex7.png
2,6,116,3,3,1,724.93,nonwex10.png
2,6,117,2,3,0,850.9,nonwin2_5.png
2,6,118,3,3,1,840.92,nonwex2_1.png
2,6,119,3,3,1,838.92,nonwex2_2.png
2,6,120,3,2,0,820.86,nonwin2_2.png
2,6,121,2,3,0,810.9,nonwex11.png
2,6,122,3,3,1,832.9,nonwex12.png
2,6,123,3,3,1,934.9,nonwin2_4.png
2,6,124,3,3,1,868.89,nonwex11.png
2,6,125,3,2,0,802.82,nonwex2_8.png
2,6,126,3,3,1,784.87,nonwin4.png
2,6,127,3,3,1,806.81,nonwin2_5.png
2,6,128,3,3,1,868.85,nonwin2_12.png
2,6,129,3,3,1,802.8,nonwin11.png
2,6,130,3,3,1,656.81,nonwin2_6.png
2,6,131,3,3,1,278.8,nonwin2_1.png
2,6,132,3,3,1,476.81,nonwin8.png
2,6,133,3,3,1,570.78,nonwex1.png
2,6,134,2,3,0,552.74,nonwin9.png
2,6,135,3,3,1,494.77,nonwex2_5.png
2,6,136,3,3,1,500.74,nonwex3.png
2,6,137,3,3,1,674.8,nonwex2_4.png
2,6,138,3,3,1,744.73,nonwin1.png
2,6,139,3,3,1,742.75,nonwin5.png
2,6,140,3,3,1,532.76,nonwex2_12.png
2,6,141,3,3,1,514.71,nonwin2_9.png
2,6,142,3,3,1,680.72,nonwin9.png
2,6,143,3,3,1,678.71,nonwin2_7.png
2,6,144,3,3,1,908.76,nonwin10.png
2,7,1,1,1,1,713.21,nonwex2_6.png
2,7,2,1,1,1,567.22,nonwin3.png
2,7,3,1,1,1,445.18,nonwex7.png
2,7,4,1,1,1,411.19,nonwin6.png
2,7,5,1,1,1,513.23,nonwin2_11.png
2,7,6,1,1,1,463.22,nonwin10.png
2,7,7,1,1,1,461.19,nonwin2_12.png
2,7,8,1,1,1,459.19,nonwex5.png
2,7,9,1,1,1,481.12,nonwex2_12.png
2,7,10,1,1,1,567.17,nonwin9.png
2,7,11,1,1,1,669.19,nonwin1.png
2,7,12,1,1,1,587.18,nonwin8.png
2,7,13,1,1,1,617.15,nonwex2_1.png
2,7,14,1,1,1,567.16,nonwin2_10.png
2,7,15,1,1,1,605.1,nonwex2_9.png
2,7,16,1,1,1,627.16,nonwex9.png
2,7,17,1,1,1,697.12,nonwex2.png
2,7,18,1,2,0,743.13,nonwin2_6.png
2,7,19,1,1,1,773.14,nonwin7.png
2,7,20,1,1,1,795.14,nonwex12.png
2,7,21,2,2,1,745.13,nonwex7.png
2,7,22,2,2,1,719.07,nonwex2_9.png
2,7,23,1,2,0,725.05,nonwex11.png
2,7,24,2,2,1,659.08,nonwin2_6.png
2,7,25,1,2,0,729.1,nonwin12.png
2,7,26,1,1,1,783.04,nonwex6.png
2,7,27,1,1,1,941.1,nonwex1.png
2,7,28,1,1,1,755.05,nonwin2_7.png
2,7,29,1,1,1,785.05,nonwex2_10.png
2,7,30,2,2,1,799.02,nonwex12.png
2,7,31,1,2,0,709.06,nonwin4.png
2,7,32,2,2,1,779.06,nonwex2_6.png
2,7,33,1,2,0,769.06,nonwin11.png
2,7,34,2,2,1,871.02,nonwex2_10.png
2,7,35,1,1,1,805.05,nonwex2_7.png
2,7,36,1,2,0,867.04,nonwex2_4.png
2,7,37,2,3,0,857.03,nonwin12.png
2,7,38,1,2,0,863.03,nonwex2_5.png
2,7,39,2,2,1,908.98,nonwin9.png
2,7,40,1,1,1,747.01,nonwex2_3.png
2,7,41,1,1,1,697,nonwex8.png
2,7,42,3,3,1,823,nonwex2_9.png
2,7,43,2,2,1,772.94,nonwin2_12.png
2,7,44,2,2,1,786.99,nonwin2_10.png
2,7,45,1,1,1,784.92,nonwin2_5.png
2,7,46,2,2,1,726.98,nonwex9.png
2,7,47,2,2,1,716.96,nonwex8.png
2,7,48,1,1,1,858.97,nonwin2_3.png
2,7,49,2,3,0,984.95,nonwin7.png
2,7,50,2,2,1,758.92,nonwex2_1.png
2,7,51,1,2,0,740.89,nonwin2_1.png
2,7,52,1,2,0,754.91,nonwex3.png
2,7,53,2,2,1,632.87,nonwin2_3.png
2,7,54,2,2,1,726.92,nonwin1.png
2,7,55,3,2,0,692.85,nonwex8.png
2,7,56,3,2,0,730.87,nonwex7.png
2,7,57,1,2,0,688.91,nonwin2_4.png
2,7,58,2,2,1,814.86,nonwex2_12.png
2,7,59,1,1,1,876.9,nonwex10.png
2,7,60,1,2,0,754.87,nonwex2_8.png
2,7,61,2,2,1,760.83,nonwin8.png
2,7,62,1,2,0,742.87,nonwex4.png
2,7,63,2,2,1,788.87,nonwin6.png
2,7,64,2,2,1,826.83,nonwin10.png
2,7,65,2,2,1,800.83,nonwex2_3.png
2,7,66,3,3,1,1046.84,nonwin9.png
2,7,67,1,1,1,812.79,nonwin2.png
2,7,68,3,2,0,658.84,nonwin12.png
2,7,69,2,2,1,880.8,nonwex6.png
2,7,70,1,1,1,822.81,nonwin5.png
2,7,71,2,2,1,732.75,nonwin2_11.png
2,7,72,3,2,0,650.76,nonwex2_6.png
2,7,73,2,2,1,720.81,nonwex2_8.png
2,7,74,2,3,0,838.8,nonwex10.png
2,7,75,2,2,1,716.74,nonwex11.png
2,7,76,1,2,0,698.79,nonwex2_11.png
2,7,77,2,3,0,712.72,nonwex2_11.png
2,7,78,1,2,0,766.78,nonwex2_2.png
2,7,79,3,3,1,804.73,nonwin2_3.png
2,7,80,2,2,1,882.73,nonwin3.png
2,7,81,2,3,0,824.76,nonwex2.png
2,7,82,3,2,0,822.75,nonwex11.png
2,7,83,2,2,1,756.74,nonwex5.png
2,7,84,2,2,1,722.72,nonwex4.png
2,7,85,3,3,1,696.72,nonwex5.png
2,7,86,1,2,0,638.7,nonwin2_9.png
2,7,87,3,2,0,700.68,nonwex2_8.png
2,7,88,3,2,0,786.68,nonwex6.png
2,7,89,3,3,1,776.67,nonwin2_11.png
2,7,90,2,3,0,814.65,nonwex1.png
2,7,91,3,2,0,1004.66,nonwex2_1.png
2,7,92,3,3,1,674.65,nonwin2_6.png
2,7,93,2,3,0,856.67,nonwex2_4.png
2,7,94,2,3,0,734.68,nonwin5.png
2,7,95,2,3,0,748.63,nonwin11.png
2,7,96,2,3,0,730.63,nonwin2_5.png
2,7,97,2,3,0,744.66,nonwin2_1.png
2,7,98,3,3,1,646.6,nonwin1.png
2,7,99,3,3,1,708.64,nonwex4.png
2,7,100,2,3,0,634.63,nonwin2_4.png
2,7,101,3,3,1,584.64,nonwin7.png
2,7,102,3,3,1,566.6,nonwex10.png
2,7,103,3,3,1,468.56,nonwex2_12.png
2,7,104,3,3,1,562.55,nonwin2_10.png
2,7,105,1,3,0,544.61,nonwin2_8.png
2,7,106,3,3,1,430.53,nonwin2_12.png
2,7,107,3,2,0,876.4,nonwex12.png
2,7,108,2,3,0,802.51,nonwex2_5.png
2,7,109,3,3,1,712.58,nonwin2_4.png
2,7,110,2,3,0,750.52,nonwex2_7.png
2,7,111,2,3,0,684.53,nonwin4.png
2,7,112,2,3,0,570.53,nonwex2_2.png
2,7,113,2,3,0,672.52,nonwin2_9.png
2,7,114,2,3,0,750.49,nonwex3.png
2,7,115,2,3,0,636.54,nonwin2.png
2,7,116,3,3,1,570.48,nonwex2_7.png
2,7,117,2,3,0,552.5,nonwin2_8.png
2,7,118,3,3,1,470.47,nonwex2_5.png
2,7,119,2,3,0,372.49,nonwin2_7.png
2,7,120,1,3,0,250.45,nonwin2_2.png
2,7,121,3,3,1,248.5,nonwin2_8.png
2,7,122,3,3,1,790.5,nonwin8.png
2,7,123,3,3,1,684.5,nonwin2_5.png
2,7,124,3,3,1,650.49,nonwex2_4.png
2,7,125,3,3,1,800.49,nonwex9.png
2,7,126,3,3,1,782.48,nonwex2_11.png
2,7,127,3,3,1,1012.45,nonwin2_9.png
2,7,128,3,3,1,402.47,nonwin5.png
2,7,129,3,3,1,240.45,nonwin6.png
2,7,130,3,3,1,198.4,nonwin3.png
2,7,131,3,3,1,68.37,nonwex1.png
2,7,132,3,3,1,274.38,nonwin11.png
2,7,133,3,3,1,360.41,nonwin2_1.png
2,7,134,3,3,1,382.42,nonwex3.png
2,7,135,3,3,1,268.38,nonwin4.png
2,7,136,3,3,1,298.41,nonwin2_7.png
2,7,137,2,3,0,576.38,nonwin2_2.png
2,7,138,3,3,1,534.39,nonwex2_10.png
2,7,139,3,3,1,452.33,nonwex2_3.png
2,7,140,3,3,1,362.37,nonwin10.png
2,7,141,3,3,1,592.38,nonwin2.png
2,7,142,3,3,1,542.38,nonwex2_2.png
2,7,143,3,3,1,748.31,nonwin2_2.png
2,7,144,3,3,1,810.36,nonwex2.png
2,8,1,1,1,1,482.72,nonwin11.png
2,8,2,1,1,1,360.71,nonwex2_5.png
2,8,3,1,1,1,542.7,nonwex12.png
2,8,4,1,1,1,396.75,nonwin5.png
2,8,5,1,1,1,266.75,nonwin12.png
2,8,6,1,1,1,208.71,nonwin2_7.png
2,8,7,1,1,1,310.74,nonwin2_1.png
2,8,8,1,1,1,236.73,nonwin2_8.png
2,8,9,2,1,0,338.72,nonwex2_5.png
2,8,10,1,1,1,680.73,nonwex2_11.png
2,8,11,1,1,1,750.7,nonwin2_11.png
2,8,12,1,1,1,868.72,nonwex6.png
2,8,13,1,2,0,810.68,nonwin6.png
2,8,14,1,1,1,656.7,nonwin2_2.png
2,8,15,1,1,1,542.7,nonwin7.png
2,8,16,1,1,1,628.61,nonwex2_7.png
2,8,17,1,1,1,698.64,nonwin2_6.png
2,8,18,1,1,1,632.61,nonwex9.png
2,8,19,1,1,1,534.67,nonwin4.png
2,8,20,2,1,0,660.67,nonwin2_8.png
2,8,21,1,1,1,666.63,nonwin9.png
2,8,22,2,2,1,680.66,nonwin2_7.png
2,8,23,2,1,0,646.58,nonwin5.png
2,8,24,1,1,1,828.65,nonwin2_10.png
2,8,25,1,1,1,730.58,nonwex10.png
2,8,26,1,2,0,696.62,nonwex4.png
2,8,27,2,1,0,654.6,nonwin2_2.png
2,8,28,1,2,0,716.59,nonwex1.png
2,8,29,2,1,0,594.58,nonwin11.png
2,8,30,1,2,0,520.6,nonwex11.png
2,8,31,1,2,0,510.6,nonwex2_9.png
2,8,32,1,1,1,588.54,nonwin2_5.png
2,8,33,1,2,0,674.53,nonwex2_10.png
2,8,34,1,1,1,680.52,nonwex2_2.png
2,8,35,1,1,1,654.58,nonwex2_4.png
2,8,36,2,2,1,820.56,nonwin7.png
2,8,37,2,2,1,714.56,nonwex6.png
2,8,38,1,1,1,768.51,nonwex8.png
2,8,39,1,1,1,638.53,nonwin2_9.png
2,8,40,1,1,1,740.54,nonwin2_3.png
2,8,41,1,1,1,778.53,nonwex2.png
2,8,42,1,2,0,672.52,nonwex2_12.png
2,8,43,3,2,0,534.51,nonwin11.png
2,8,44,2,2,1,732.52,nonwin4.png
2,8,45,2,2,1,738.5,nonwex2_2.png
2,8,46,2,2,1,736.44,nonwin9.png
2,8,47,2,2,1,678.44,nonwin12.png
2,8,48,1,1,1,676.49,nonwex7.png
2,8,49,1,2,0,714.43,nonwin3.png
2,8,50,2,2,1,664.46,nonwin2_10.png
2,8,51,3,3,1,822.48,nonwex6.png
2,8,52,2,3,0,884.45,nonwex2.png
2,8,53,1,1,1,946.47,nonwex3.png
2,8,54,1,1,1,784.42,nonwex2_3.png
2,8,55,1,2,0,758.4,nonwex5.png
2,8,56,1,2,0,708.45,nonwin2_12.png
2,8,57,2,3,0,890.44,nonwex2_11.png
2,8,58,2,2,1,848.43,nonwin3.png
2,8,59,3,2,0,774.4,nonwin7.png
2,8,60,1,2,0,748.42,nonwin8.png
2,8,61,1,2,0,602.36,nonwin10.png
2,8,62,2,2,1,616.41,nonwex8.png
2,8,63,3,3,1,774.34,nonwex8.png
2,8,64,2,2,1,956.36,nonwex1.png
2,8,65,3,2,0,786.36,nonwin2_10.png
2,8,66,3,3,1,736.38,nonwin3.png
2,8,67,1,2,0,782.34,nonwin1.png
2,8,68,1,2,0,724.34,nonwin2_4.png
2,8,69,2,2,1,730.34,nonwex2_4.png
2,8,70,2,2,1,680.3,nonwin2_1.png
2,8,71,1,2,0,622.3,nonwex2_6.png
2,8,72,2,2,1,782.4,nonwin2_6.png
2,8,73,2,2,1,666.26,nonwex2_9.png
2,8,74,2,2,1,768.28,nonwin2_5.png
2,8,75,3,2,0,774.3,nonwin2_8.png
2,8,76,2,3,0,748.32,nonwin6.png
2,8,77,1,3,0,666.27,nonwex2_8.png
2,8,78,3,3,1,656.25,nonwin2_5.png
2,8,79,2,2,1,790.31,nonwex2_7.png
2,8,80,3,3,1,620.29,nonwex2_7.png
2,8,81,2,2,1,538.23,nonwex12.png
2,8,82,3,2,0,712.29,nonwin5.png
2,8,83,2,3,0,638.28,nonwex9.png
2,8,84,2,3,0,764.23,nonwex2_10.png
2,8,85,3,3,1,658.23,nonwex9.png
2,8,86,1,2,0,592.24,nonwin2.png
2,8,87,1,2,0,734.2,nonwex2_1.png
2,8,88,2,3,0,740.23,nonwex3.png
2,8,89,2,3,0,906.25,nonwin2_9.png
2,8,90,2,2,1,792.24,nonwex2_3.png
2,8,91,2,3,0,742.19,nonwin1.png
2,8,92,2,3,0,852.18,nonwex10.png
2,8,93,3,3,1,674.22,nonwex2_4.png
2,8,94,2,3,0,600.21,nonwex5.png
2,8,95,2,3,0,758.15,nonwex2_1.png
2,8,96,3,3,1,716.14,nonwex2.png
2,8,97,3,3,1,778.18,nonwex2_5.png
2,8,98,2,3,0,760.16,nonwex2_8.png
2,8,99,3,3,1,814.17,nonwin6.png
2,8,100,3,0,0,0,nonwin12.png
2,8,101,2,3,0,634.1,nonwin2.png
2,8,102,2,3,0,528.15,nonwin2_11.png
2,8,103,3,3,1,398.1,nonwex12.png
2,8,104,3,3,1,316.09,nonwin1.png
2,8,105,2,3,0,498.14,nonwin10.png
2,8,106,3,3,1,488.11,nonwin4.png
2,8,107,3,3,1,542.07,nonwin2.png
2,8,108,3,3,1,844.12,nonwin10.png
2,8,109,2,3,0,466.06,nonwin8.png
2,8,110,3,2,0,816.11,nonwin2_2.png
2,8,111,3,3,1,366.1,nonwin2_1.png
2,8,112,3,3,1,764.05,nonwex2_1.png
2,8,113,3,3,1,722.04,nonwex5.png
2,8,114,3,2,0,599.95,nonwex2_2.png
2,8,115,3,3,1,398.06,nonwin2_6.png
2,8,116,2,3,0,276.01,nonwex7.png
2,8,117,3,3,1,338.05,nonwex2_8.png
2,8,118,3,3,1,744,nonwex2_9.png
2,8,119,3,3,1,766.06,nonwin8.png
2,8,120,2,3,0,724.03,nonwex2_12.png
2,8,121,2,3,0,834.05,nonwin2_12.png
2,8,122,3,3,1,808,nonwex2_12.png
2,8,123,3,3,1,765.99,nonwin2_11.png
2,8,124,3,3,1,859.99,nonwex2_11.png
2,8,125,3,2,0,817.97,nonwin9.png
2,8,126,2,3,0,727.93,nonwin2_4.png
2,8,127,2,3,0,638,nonwex4.png
2,8,128,3,3,1,564,nonwex1.png
2,8,129,3,3,1,497.93,nonwex2_3.png
2,8,130,3,3,1,735.99,nonwin2_9.png
2,8,131,3,3,1,725.98,nonwex10.png
2,8,132,2,2,1,787.95,nonwex2_6.png
2,8,133,2,3,0,929.96,nonwin2_3.png
2,8,134,3,3,1,887.93,nonwex4.png
2,8,135,3,3,1,861.96,nonwex7.png
2,8,136,3,3,1,907.92,nonwex2_6.png
2,8,137,3,3,1,881.95,nonwin2_3.png
2,8,138,2,3,0,927.92,nonwex11.png
2,8,139,3,3,1,861.92,nonwin2_4.png
2,8,140,3,3,1,843.86,nonwex3.png
2,8,141,3,3,1,865.86,nonwin2_7.png
2,8,142,3,3,1,903.86,nonwex2_10.png
2,8,143,3,3,1,925.85,nonwex11.png
2,8,144,3,3,1,939.91,nonwin2_12.png
2,9,1,1,1,1,442.44,nonwex2_10.png
2,9,2,1,1,1,360.39,nonwex2_7.png
2,9,3,1,1,1,438.42,nonwin4.png
2,9,4,1,1,1,436.42,nonwex2_8.png
2,9,5,1,1,1,434.41,nonwin6.png
2,9,6,1,1,1,400.4,nonwin8.png
2,9,7,1,1,1,422.35,nonwex1.png
2,9,8,1,1,1,412.33,nonwex7.png
2,9,9,1,1,1,498.37,nonwex2.png
2,9,10,1,1,1,448.36,nonwex2_9.png
2,9,11,1,1,1,686.32,nonwin2_12.png
2,9,12,2,2,1,716.37,nonwin4.png
2,9,13,1,1,1,610.37,nonwin2_2.png
2,9,14,1,1,1,600.36,nonwin2_10.png
2,9,15,1,1,1,630.3,nonwex2_3.png
2,9,16,1,1,1,660.35,nonwex12.png
2,9,17,2,2,1,706.35,nonwex2.png
2,9,18,1,1,1,704.28,nonwex3.png
2,9,19,2,2,1,694.3,nonwex2_3.png
2,9,20,1,1,1,748.33,nonwex4.png
2,9,21,2,2,1,778.28,nonwex12.png
2,9,22,1,1,1,720.27,nonwex2_2.png
2,9,23,1,1,1,614.31,nonwex8.png
2,9,24,1,1,1,620.3,nonwin2_7.png
2,9,25,1,1,1,666.23,nonwin2_1.png
2,9,26,1,1,1,704.26,nonwex2_1.png
2,9,27,2,2,1,766.29,nonwex2_9.png
2,9,28,1,2,0,820.28,nonwin2_8.png
2,9,29,1,1,1,746.2,nonwin2_5.png
2,9,30,1,1,1,784.27,nonwex2_4.png
2,9,31,1,1,1,782.26,nonwex2_5.png
2,9,32,1,2,0,748.23,nonwin2.png
2,9,33,1,2,0,786.25,nonwin12.png
2,9,34,3,2,0,848.21,nonwex12.png
2,9,35,2,2,1,838.19,nonwex7.png
2,9,36,1,2,0,812.15,nonwin3.png
2,9,37,2,2,1,810.22,nonwin2_12.png
2,9,38,1,2,0,768.2,nonwin2_4.png
2,9,39,1,1,1,846.19,nonwin2_3.png
2,9,40,1,1,1,852.21,nonwin11.png
2,9,41,1,1,1,834.19,nonwex10.png
2,9,42,1,1,1,944.2,nonwin10.png
2,9,43,2,2,1,902.19,nonwex2_5.png
2,9,44,2,2,1,820.15,nonwin2_7.png
2,9,45,1,1,1,802.17,nonwex2_6.png
2,9,46,1,2,0,744.1,nonwex11.png
2,9,47,1,2,0,790.16,nonwin9.png
2,9,48,2,2,1,740.15,nonwex1.png
2,9,49,1,2,0,722.1,nonwin7.png
2,9,50,2,2,1,728.14,nonwex3.png
2,9,51,1,2,0,950.1,nonwex6.png
2,9,52,2,2,1,916.1,nonwex6.png
2,9,53,2,2,1,906.12,nonwex2_2.png
2,9,54,2,3,0,872.11,nonwin2_10.png
2,9,55,2,2,1,846.11,nonwin2_2.png
2,9,56,2,2,1,852.11,nonwex2_10.png
2,9,57,2,2,1,818.08,nonwin2_8.png
2,9,58,2,3,0,872.08,nonwin9.png
2,9,59,3,3,1,878.09,nonwex2_2.png
2,9,60,2,2,1,884.05,nonwex10.png
2,9,61,1,2,0,818.07,nonwex9.png
2,9,62,2,2,1,816.07,nonwex8.png
2,9,63,1,2,0,806.01,nonwex2_11.png
2,9,64,2,2,1,811.99,nonwin11.png
2,9,65,2,2,1,842,nonwin6.png
2,9,66,1,2,0,847.99,nonwin2_9.png
2,9,67,2,2,1,765.99,nonwex2_11.png
2,9,68,3,3,1,908.03,nonwin2_7.png
2,9,69,2,2,1,858.02,nonwin7.png
2,9,70,1,2,0,815.94,nonwin5.png
2,9,71,3,3,1,798,nonwex10.png
2,9,72,3,3,1,820,nonwin2_12.png
2,9,73,1,2,0,857.96,nonwin2_6.png
2,9,74,3,3,1,719.99,nonwex2_10.png
2,9,75,2,3,0,693.96,nonwex2_4.png
2,9,76,2,3,0,659.94,nonwex2_8.png
2,9,77,1,2,0,833.98,nonwex2_12.png
2,9,78,2,3,0,711.92,nonwex2_7.png
2,9,79,2,3,0,661.96,nonwin2_9.png
2,9,80,1,3,0,707.9,nonwin2_11.png
2,9,81,1,2,0,873.96,nonwex5.png
2,9,82,2,3,0,671.95,nonwin2_1.png
2,9,83,3,3,1,693.88,nonwex2_7.png
2,9,84,2,3,0,691.92,nonwin3.png
2,9,85,2,3,0,649.92,nonwex5.png
2,9,86,2,3,0,711.9,nonwin8.png
2,9,87,3,3,1,757.88,nonwex7.png
2,9,88,2,3,0,739.91,nonwex9.png
2,9,89,3,0,0,0,nonwex2_5.png
2,9,90,3,3,1,695.9,nonwin7.png
2,9,91,2,3,0,741.87,nonwex2_6.png
2,9,92,2,3,0,707.88,nonwin2_5.png
2,9,93,2,3,0,729.82,nonwex2_1.png
2,9,94,2,3,0,727.86,nonwex11.png
2,9,95,2,3,0,701.87,nonwin2_11.png
2,9,96,2,3,0,755.82,nonwin2_3.png
2,9,97,3,3,1,697.85,nonwex2_8.png
2,9,98,3,3,1,631.84,nonwex3.png
2,9,99,2,3,0,605.84,nonwin2.png
2,9,100,2,3,0,571.82,nonwin2_4.png
2,9,101,3,3,1,545.84,nonwex2_9.png
2,9,102,3,3,1,519.82,nonwex2_6.png
2,9,103,3,3,1,525.78,nonwex2_4.png
2,9,104,3,3,1,483.81,nonwex2_11.png
2,9,105,2,3,0,345.74,nonwin10.png
2,9,106,3,3,1,415.73,nonwex2.png
2,9,107,3,3,1,317.77,nonwin2_2.png
2,9,108,3,3,1,491.77,nonwin9.png
2,9,109,1,3,0,489.66,nonwin1.png
2,9,110,2,3,0,335.76,nonwin1.png
2,9,111,2,3,0,277.76,nonwin12.png
2,9,112,3,3,1,755.7,nonwin2_3.png
2,9,113,2,3,0,649.74,nonwex2_12.png
2,9,114,3,3,1,655.74,nonwin12.png
2,9,115,3,3,1,821.74,nonwin6.png
2,9,116,3,3,1,843.74,nonwin2.png
2,9,117,3,3,1,753.73,nonwex2_1.png
2,9,118,3,3,1,735.69,nonwin2_10.png
2,9,119,3,3,1,685.68,nonwin8.png
2,9,120,2,3,0,603.68,nonwex4.png
2,9,121,3,3,1,185.69,nonwex2_12.png
2,9,122,3,3,1,143.68,nonwin11.png
2,9,123,3,3,1,445.66,nonwin2_5.png
2,9,124,2,3,0,451.65,nonwin5.png
2,9,125,3,3,1,329.67,nonwex6.png
2,9,126,3,3,1,303.6,nonwin4.png
2,9,127,3,3,1,837.67,nonwin10.png
2,9,128,3,3,1,323.61,nonwin5.png
2,9,129,2,3,0,257.62,nonwin2_6.png
2,9,130,3,0,0,0,nonwin1.png
2,9,131,3,3,1,437.64,nonwex8.png
2,9,132,3,3,1,299.63,nonwex9.png
2,9,133,3,3,1,313.59,nonwin2_1.png
2,9,134,3,3,1,367.56,nonwin3.png
2,9,135,3,3,1,349.57,nonwin2_4.png
2,9,136,3,3,1,299.58,nonwex11.png
2,9,137,3,3,1,457.54,nonwin2_6.png
2,9,138,3,3,1,415.53,nonwin2_8.png
2,9,139,3,3,1,381.55,nonwex4.png
2,9,140,3,3,1,275.58,nonwex5.png
2,9,141,3,3,1,337.52,nonwin2_9.png
2,9,142,3,3,1,215.55,nonwex2_3.png
2,9,143,3,3,1,525.57,nonwin2_11.png
2,9,144,3,3,1,523.51,nonwex1.png
2,10,1,1,1,1,748.37,nonwin2_3.png
2,10,2,1,1,1,594.44,nonwex8.png
2,10,3,1,1,1,600.41,nonwin6.png
2,10,4,1,1,1,574.43,nonwex2_4.png
2,10,5,2,2,1,772.36,nonwex8.png
2,10,6,1,1,1,618.39,nonwin2_5.png
2,10,7,1,1,1,664.41,nonwex2_7.png
2,10,8,1,2,0,830.41,nonwin2_4.png
2,10,9,1,1,1,604.37,nonwex7.png
2,10,10,1,1,1,530.35,nonwex2_5.png
2,10,11,1,1,1,552.37,nonwin8.png
2,10,12,1,1,1,662.34,nonwex2_9.png
2,10,13,1,1,1,652.37,nonwex1.png
2,10,14,2,2,1,650.37,nonwex1.png
2,10,15,1,2,0,672.31,nonwin3.png
2,10,16,1,1,1,702.29,nonwin2_8.png
2,10,17,1,1,1,644.34,nonwin2_7.png
2,10,18,1,2,0,794.35,nonwex2_8.png
2,10,19,1,2,0,824.33,nonwex9.png
2,10,20,1,1,1,750.3,nonwin9.png
2,10,21,1,2,0,932.31,nonwex2.png
2,10,22,1,1,1,786.26,nonwin2_12.png
2,10,23,3,2,0,760.32,nonwex1.png
2,10,24,2,2,1,846.31,nonwex7.png
2,10,25,1,1,1,764.31,nonwex2_1.png
2,10,26,1,2,0,826.27,nonwin2_10.png
2,10,27,2,2,1,776.29,nonwin6.png
2,10,28,2,2,1,798.25,nonwex2.png
2,10,29,1,2,0,788.23,nonwin5.png
2,10,30,1,1,1,978.28,nonwin11.png
2,10,31,1,1,1,752.26,nonwex2_12.png
2,10,32,2,3,0,790.25,nonwex9.png
2,10,33,1,2,0,668.25,nonwin2_2.png
2,10,34,2,2,1,730.25,nonwin2_5.png
2,10,35,2,2,1,776.2,nonwex2_5.png
2,10,36,2,2,1,822.24,nonwin2_3.png
2,10,37,2,3,0,828.23,nonwin2_10.png
2,10,38,3,3,1,770.2,nonwex9.png
2,10,39,1,2,0,768.17,nonwin12.png
2,10,40,1,2,0,718.17,nonwin2_11.png
2,10,41,2,2,1,868.21,nonwex2_12.png
2,10,42,2,2,1,794.17,nonwex2_7.png
2,10,43,3,2,0,784.15,nonwin2_5.png
2,10,44,1,2,0,758.19,nonwex6.png
2,10,45,1,2,0,796.17,nonwex2_2.png
2,10,46,2,2,1,650.17,nonwin2_7.png
2,10,47,2,3,0,792.17,nonwex2_8.png
2,10,48,2,2,1,662.14,nonwin2_4.png
2,10,49,3,3,1,708.13,nonwin2_7.png
2,10,50,2,3,0,746.14,nonwex2_2.png
2,10,51,2,3,0,744.14,nonwin2_11.png
2,10,52,2,2,1,718.09,nonwin5.png
2,10,53,1,2,0,788.13,nonwex12.png
2,10,54,3,3,1,866.13,nonwex2.png
2,10,55,2,2,1,816.11,nonwin2_2.png
2,10,56,2,3,0,790.08,nonwex12.png
2,10,57,3,3,1,740.1,nonwex2_5.png
2,10,58,2,3,0,746.09,nonwex2_1.png
2,10,59,1,3,0,832.08,nonwin2.png
2,10,60,3,2,0,838.09,nonwex2_7.png
2,10,61,2,3,0,788.03,nonwex6.png
2,10,62,1,3,0,690.06,nonwex4.png
2,10,63,1,2,0,767.95,nonwex11.png
2,10,64,2,3,0,710.04,nonwex2_4.png
2,10,65,1,2,0,732,nonwin2_9.png
2,10,66,3,3,1,698,nonwex12.png
2,10,67,2,3,0,664.05,nonwin3.png
2,10,68,2,2,1,630.04,nonwin9.png
2,10,69,1,3,0,636.03,nonwin2_6.png
2,10,70,3,3,1,570.01,nonwin2_10.png
2,10,71,1,3,0,631.94,nonwex10.png
2,10,72,1,3,0,773.98,nonwex2_11.png
2,10,73,2,2,1,956.01,nonwex4.png
2,10,74,2,2,1,785.94,nonwin2_8.png
2,10,75,3,2,0,752,nonwex2_1.png
2,10,76,2,2,1,645.98,nonwex11.png
2,10,77,3,3,1,787.97,nonwin5.png
2,10,78,3,3,1,697.97,nonwin3.png
2,10,79,1,2,0,631.92,nonwex5.png
2,10,80,1,3,0,589.96,nonwin1.png
2,10,81,3,3,1,723.92,nonwin2_4.png
2,10,82,2,3,0,689.93,nonwex5.png
2,10,83,2,2,1,799.95,nonwin2_9.png
2,10,84,2,3,0,661.92,nonwin2_12.png
2,10,85,1,3,0,531.88,nonwex2_3.png
2,10,86,3,2,0,553.93,nonwex2_4.png
2,10,87,2,3,0,615.9,nonwin11.png
2,10,88,3,3,1,541.88,nonwin11.png
2,10,89,3,2,0,547.91,nonwex4.png
2,10,90,2,3,0,801.86,nonwex10.png
2,10,91,1,2,0,847.9,nonwex3.png
2,10,92,1,2,0,925.89,nonwex2_6.png
2,10,93,1,2,0,843.81,nonwin4.png
2,10,94,3,3,1,681.85,nonwin2_12.png
2,10,95,1,3,0,519.86,nonwex2_10.png
2,10,96,3,3,1,461.86,nonwin2_8.png
2,10,97,3,3,1,371.85,nonwex5.png
2,10,98,2,3,0,297.85,nonwin2_6.png
2,10,99,2,3,0,375.84,nonwin2.png
2,10,100,2,3,0,381.84,nonwex2_11.png
2,10,101,2,3,0,411.82,nonwex2_6.png
2,10,102,1,3,0,713.8,nonwin10.png
2,10,103,2,3,0,703.77,nonwex2_9.png
2,10,104,3,3,1,517.81,nonwex6.png
2,10,105,2,3,0,283.81,nonwin4.png
2,10,106,2,3,0,369.78,nonwex3.png
2,10,107,2,3,0,295.79,nonwin1.png
2,10,108,3,3,1,365.76,nonwex2_12.png
2,10,109,1,3,0,379.74,nonwin7.png
2,10,110,3,3,1,529.75,nonwin2_2.png
2,10,111,2,3,0,471.71,nonwex2_3.png
2,10,112,3,3,1,477.77,nonwin1.png
2,10,113,3,3,1,499.71,nonwin6.png
2,10,114,3,3,1,513.67,nonwex11.png
2,10,115,3,3,1,495.69,nonwin2_3.png
2,10,116,1,3,0,549.72,nonwin2_1.png
2,10,117,2,3,0,539.7,nonwin2_1.png
2,10,118,3,3,1,1017.74,nonwex2_11.png
2,10,119,3,3,1,767.73,nonwin9.png
2,10,120,3,2,0,741.72,nonwin2_9.png
2,10,121,2,3,0,571.64,nonwin12.png
2,10,122,3,3,1,417.67,nonwin2.png
2,10,123,3,3,1,583.64,nonwin2_6.png
2,10,124,2,3,0,509.65,nonwin8.png
2,10,125,3,3,1,411.69,nonwex8.png
2,10,126,3,3,1,345.68,nonwin2_1.png
2,10,127,3,3,1,319.62,nonwex2_2.png
2,10,128,3,3,1,341.63,nonwin12.png
2,10,129,3,3,1,323.59,nonwin8.png
2,10,130,3,3,1,313.6,nonwex2_8.png
2,10,131,2,3,0,583.59,nonwex2_10.png
2,10,132,2,3,0,469.61,nonwin10.png
2,10,133,3,3,1,403.62,nonwex3.png
2,10,134,3,3,1,273.58,nonwex2_9.png
2,10,135,3,3,1,231.62,nonwex7.png
2,10,136,3,3,1,253.61,nonwex10.png
2,10,137,2,3,0,259.59,nonwin7.png
2,10,138,3,3,1,241.54,nonwex2_10.png
2,10,139,3,3,1,279.6,nonwex2_6.png
2,10,140,3,3,1,765.58,nonwin4.png
2,10,141,3,3,1,819.6,nonwin10.png
2,10,142,3,3,1,545.57,nonwex2_3.png
2,10,143,3,3,1,319.51,nonwin2_11.png
2,10,144,3,3,1,237.57,nonwin7.png
3,1,1,1,1,1,960.87,nonwex2_5.png
3,1,2,1,1,1,889.36,nonwin2_7.png
3,1,3,1,1,1,583.27,nonwin6.png
3,1,4,1,1,1,685.08,nonwex2_2.png
3,1,5,1,1,1,467,nonwex2_11.png
3,1,6,1,1,1,480.83,nonwin9.png
3,1,7,1,1,1,462.74,nonwin2_6.png
3,1,8,1,1,1,460.61,nonwex2_4.png
3,1,9,1,1,1,466.48,nonwin2_10.png
3,1,10,1,1,1,466.98,nonwex10.png
3,1,11,1,1,1,595.53,nonwex1.png
3,1,12,2,2,1,969.46,nonwin2_10.png
3,1,13,1,1,1,602,nonwex2_1.png
3,1,14,2,2,1,887.82,nonwex1.png
3,1,15,1,1,1,992.34,nonwex7.png
3,1,16,1,1,1,496.85,nonwex8.png
3,1,17,1,1,1,561.46,nonwex9.png
3,1,18,2,2,1,767.35,nonwin2_6.png
3,1,19,3,3,1,733.18,nonwin2_10.png
3,1,20,1,1,1,579.06,nonwin2_8.png
3,1,21,2,2,1,784.94,nonwex8.png
3,1,22,1,1,1,582.78,nonwin1.png
3,1,23,1,1,1,508.64,nonwin10.png
